File: example_measurements/msa/xy-21-1-15.MSA
#FORMAT      : EMSA/MAS Spectral Data File
#VERSION     : 1.0
#TITLE       :
#DATE        : 30-Apr-2002
#TIME        : 00:52
#OWNER       : PRAXIS
#NPOINTS     : 1024
#NCOLUMNS    : 32
#XUNITS      : keV
#YUNITS      : counts
#DATATYPE    : Y
#XPERCHAN    : 0.0399341
#OFFSET      : -0.94429
#CHOFFSET    :
#SIGNALTYP   :
#XLABELS     :
#YLABELS     :
#BEAMKV   -kV: 50
#EMISSION -µA: 600
#BEAMDIAM- nm:
#XPOSITION   :
#YPOSITION   :
#ZPOSITION   :
#ELEVANGLE-dg:
#SOLIDANGL-sR:
#LIVETIME  -s: 10.000
#REALTIME  -s: 9.973
#THCWIND     :
#TAUWIND-cm  :
#COMMENT     : XYZ
#CRYSTMATL   :
#CRYSTAREA   :
#CRYSTTHIK   :
#DEADTIME    :
#NXPOS       : 21
#NYPOS       : 1
#NZPOS       : 15
#XSTEP       : -150
#YSTEP       : 0
#ZSTEP       : -20
#XNULL       : 15500
#YNULL       : 8500
#ZNULL       : 3100
#TANXY       : 0
#SPECTRUM    :
0 0 0 0 0 0 0 0 0 0 0 0 0 0 0 0 0 0 0 0 1 38 571 2162 2379 773 74 2 0 0 0 0
2 3 3 0 3 0 3 0 2 4 2 5 3 2 3 4 0 2 2 0 0 0 1 0 0 0 1 0 0 0 0 0
0 1 0 0 0 0 0 0 0 0 0 0 0 0 0 1 0 0 0 0 0 1 0 0 0 0 0 0 0 0 0 0
1 0 0 0 1 1 0 1 1 1 0 1 1 1 3 1 0 0 0 0 0 1 0 0 0 1 1 0 1 2 1 0
0 0 0 0 0 0 0 0 0 0 0 0 0 0 0 0 1 0 0 0 0 0 0 0 0 0 1 1 0 0 0 0
0 0 0 0 0 1 0 0 0 0 0 0 1 0 0 0 0 0 0 0 0 0 0 0 0 0 0 0 0 0 0 1
0 0 0 0 0 0 0 3 0 1 0 0 0 0 0 1 1 0 1 1 0 1 0 0 0 0 0 1 0 0 0 0
0 0 0 0 0 1 0 1 0 0 0 0 0 0 1 0 0 1 0 0 0 0 0 0 1 0 0 0 0 0 1 0
0 0 0 0 0 2 0 1 0 0 1 0 0 0 0 0 0 0 0 0 0 0 0 0 0 0 0 0 0 0 0 0
0 0 0 0 0 0 0 0 0 0 0 0 0 0 0 0 0 0 0 0 0 0 0 0 0 0 0 0 0 0 0 0
1 1 0 0 0 0 2 1 0 0 0 1 0 0 1 1 0 2 1 0 2 0 0 1 2 0 1 0 0 0 0 1
0 0 0 0 1 1 0 0 0 1 0 0 0 0 0 0 0 0 0 0 0 0 0 1 0 0 0 0 0 0 0 1
0 2 0 1 3 4 1 5 7 4 3 1 2 1 0 0 0 1 0 0 0 0 0 0 0 0 0 0 1 1 0 0
0 0 0 0 1 0 1 0 1 0 1 0 0 1 1 1 0 1 0 2 0 1 0 2 0 1 0 0 0 0 0 0
0 0 0 0 0 0 0 0 0 0 0 0 0 1 0 0 0 0 0 0 0 0 0 0 0 0 1 0 0 0 0 0
0 0 0 0 0 0 0 0 0 0 1 0 0 0 0 0 0 1 0 0 0 1 0 0 0 1 1 0 0 0 0 0
0 0 0 0 0 0 0 0 0 0 0 0 0 0 0 0 0 0 0 0 2 39 578 2141 2408 762 68 2 0 0 0 0
0 2 0 0 0 0 0 0 0 0 0 3 0 1 5 0 0 0 1 0 0 0 0 0 0 0 0 0 0 0 0 0
0 0 0 0 1 0 0 0 0 0 0 1 0 0 0 0 0 1 0 0 0 0 0 0 0 0 0 0 0 0 0 0
0 0 0 0 0 0 0 0 0 0 0 0 0 0 0 0 0 0 0 0 0 1 0 0 0 0 0 0 0 1 0 0
0 0 0 0 0 0 0 0 0 0 0 0 1 0 2 0 0 0 0 0 0 1 1 0 0 0 0 0 0 0 0 0
0 0 0 0 0 0 0 0 0 0 0 0 0 0 1 0 0 0 0 0 0 0 0 0 0 1 1 0 0 1 1 0
0 0 1 0 0 1 0 0 0 0 0 0 0 2 0 0 0 0 2 0 0 0 0 0 0 0 1 0 0 0 0 0
0 0 0 0 2 0 0 0 0 0 0 0 0 0 0 0 0 0 1 0 0 0 0 0 0 0 0 0 0 0 0 0
2 1 0 0 0 1 0 0 0 0 0 0 0 0 0 0 0 0 0 0 0 0 0 1 0 0 0 0 0 0 0 0
0 0 0 0 0 2 0 0 0 0 0 0 0 0 0 0 0 0 1 0 0 0 0 0 0 0 0 0 0 0 0 0
0 0 0 0 0 0 0 0 0 0 0 0 0 0 0 0 0 0 0 1 0 0 0 0 0 0 0 0 0 0 0 0
0 0 0 2 0 0 0 0 0 0 1 0 0 0 0 1 0 0 0 0 0 0 0 1 0 0 0 0 0 0 0 0
3 4 4 5 15 34 75 92 86 100 64 20 8 3 1 1 0 0 0 0 0 0 0 0 0 0 0 0 0 0 0 0
0 2 0 0 0 0 0 0 0 0 0 1 0 0 0 0 0 0 0 0 0 1 1 0 0 0 0 0 0 0 0 0
0 1 0 1 0 0 0 0 1 1 0 0 0 0 0 0 0 0 0 1 0 0 1 0 0 0 0 1 0 0 0 0
0 0 0 0 0 0 0 0 0 0 0 0 0 0 0 1 0 0 0 1 0 0 0 0 0 0 0 0 0 0 0 0
0 0 0 0 0 0 0 0 0 0 0 0 0 0 0 0 0 0 0 0 0 52 567 2125 2374 812 69 1 0 0 0 0
0 0 0 0 0 0 0 0 0 1 1 0 0 0 2 2 1 2 0 0 0 0 0 0 0 0 0 0 0 0 0 0
0 0 0 0 0 0 0 0 0 0 0 0 0 0 0 0 0 0 0 0 0 0 0 0 0 0 0 0 0 0 0 0
0 0 0 0 0 0 0 0 0 0 0 0 0 0 0 0 0 1 0 0 0 0 0 1 0 0 0 0 0 0 0 0
0 0 0 0 0 0 0 0 0 0 1 0 0 0 0 0 0 0 0 0 0 0 1 0 0 0 1 0 0 0 0 0
0 0 1 0 1 1 0 0 0 0 0 0 0 0 0 0 0 0 0 0 0 0 0 1 0 0 0 0 0 0 0 0
0 1 1 0 0 0 1 0 0 2 1 0 1 0 0 0 0 0 0 0 0 0 0 1 0 0 1 1 0 0 0 0
0 0 1 0 0 0 0 0 0 1 0 1 0 0 0 0 0 0 0 0 0 1 0 0 0 0 0 0 0 0 0 0
1 1 0 1 1 0 0 1 0 0 0 0 1 0 0 0 0 0 0 0 0 1 0 0 1 0 0 0 0 0 0 0
0 0 0 1 0 0 0 0 0 0 0 0 0 0 0 0 0 0 0 0 0 0 0 0 0 0 0 0 0 0 0 0
0 0 0 0 0 1 0 1 0 0 1 0 0 0 0 0 0 0 0 0 0 0 0 0 0 0 0 0 0 0 0 0
0 0 0 0 0 0 0 0 1 0 0 0 0 0 0 0 0 0 0 0 0 1 1 2 1 0 1 0 0 0 0 1
0 0 0 1 0 0 4 4 5 1 2 0 0 1 0 0 1 1 0 1 0 0 0 2 0 0 0 0 0 0 0 0
0 0 0 0 0 0 0 1 0 0 0 0 0 0 0 0 0 0 0 0 1 0 1 0 1 0 0 0 0 0 0 1
1 0 0 0 0 0 0 0 0 0 0 0 1 0 0 1 0 0 0 0 0 0 0 0 0 0 0 0 0 0 0 0
0 1 0 0 0 0 0 0 0 0 0 0 2 1 0 1 0 0 1 0 0 0 0 1 0 0 1 1 0 0 0 1
0 0 0 0 0 0 0 0 0 0 0 0 0 0 0 0 0 0 0 1 1 45 561 2205 2389 730 65 3 0 0 0 0
3 2 4 0 1 1 1 1 1 2 2 4 4 4 3 6 2 0 0 0 0 0 1 0 0 0 0 0 0 0 0 0
0 0 0 0 1 0 1 0 0 1 0 0 0 0 0 0 0 0 0 0 0 0 0 1 0 0 0 0 0 0 0 0
0 0 0 1 2 0 0 1 1 2 0 0 2 2 1 0 0 1 2 1 1 0 0 0 1 1 0 2 0 3 0 3
0 0 0 1 0 1 0 0 0 0 0 0 0 0 0 0 0 0 0 0 0 0 0 0 1 0 0 0 0 0 0 0
0 0 1 0 0 0 0 0 0 0 0 0 1 0 0 0 0 0 0 0 0 0 0 0 0 0 1 0 0 0 0 0
0 0 0 0 0 0 1 0 0 0 0 2 1 0 1 1 0 0 1 0 0 0 0 0 0 0 0 1 0 1 0 0
2 0 0 0 0 0 0 0 0 0 0 0 0 1 0 0 0 0 0 0 0 0 0 1 1 0 0 0 0 0 0 0
0 2 1 3 3 2 0 0 1 0 2 1 0 0 0 1 0 2 0 0 0 0 0 0 0 0 0 0 0 0 0 0
1 0 0 0 0 0 0 0 0 0 0 0 0 0 0 0 0 0 0 0 0 0 0 0 0 0 0 0 0 0 0 0
2 0 0 0 0 0 0 0 0 0 0 1 1 0 2 1 0 2 0 0 1 1 0 1 0 1 2 0 1 0 1 0
0 0 0 0 0 0 0 0 0 0 1 0 0 0 1 0 0 1 0 0 0 2 0 0 0 1 0 0 0 0 0 0
0 1 1 1 3 6 4 12 15 16 9 5 1 1 0 1 0 1 0 0 0 0 0 0 0 1 1 1 0 0 0 0
0 1 0 0 0 0 0 0 0 0 1 0 0 0 0 0 0 1 1 0 0 0 0 0 0 0 0 1 1 0 0 0
0 0 0 0 0 0 0 0 0 0 0 0 1 0 0 0 0 0 0 0 0 0 2 0 1 0 0 0 0 0 0 0
0 1 0 0 0 0 0 0 0 1 1 0 0 0 0 0 0 1 0 0 1 0 0 1 0 0 0 0 0 0 0 0
0 0 0 0 0 0 0 0 0 0 0 0 0 0 0 0 0 0 0 0 1 42 590 2200 2354 755 58 0 0 0 0 0
0 0 0 0 0 1 1 0 0 0 0 2 1 2 2 0 0 1 0 1 0 0 0 0 0 0 0 0 0 0 0 0
0 0 0 0 0 0 0 0 0 0 0 0 0 0 0 0 0 0 0 0 0 0 0 0 0 0 0 1 0 0 0 0
0 0 0 0 0 0 0 0 0 0 0 0 0 0 0 0 0 0 0 0 0 0 0 0 0 0 1 1 0 2 1 1
0 0 0 0 0 0 0 0 0 1 1 0 1 0 0 0 0 0 0 0 0 0 0 0 1 0 0 0 0 0 0 1
1 0 0 0 0 0 0 0 0 0 0 0 0 0 0 1 0 0 0 0 0 0 0 0 1 1 0 0 1 0 0 2
0 2 0 1 1 0 0 0 0 0 0 0 0 1 0 0 1 0 0 1 0 0 0 0 0 0 0 0 0 0 0 0
0 0 0 0 0 0 0 0 0 0 0 0 0 1 0 0 1 0 0 1 0 0 0 0 0 0 0 2 0 0 0 0
0 0 2 1 0 0 0 0 0 0 0 0 1 0 0 0 0 0 0 0 0 0 0 0 0 0 0 0 0 0 0 0
0 2 0 0 0 1 0 0 0 0 0 0 0 0 0 0 0 0 0 0 0 0 0 0 0 0 0 0 0 0 0 0
0 0 0 0 0 0 0 0 0 0 0 0 0 0 0 0 0 0 0 0 0 0 0 0 0 0 1 0 0 0 0 0
1 1 0 0 1 0 0 1 0 0 0 0 0 0 0 0 0 1 0 0 0 1 0 0 0 0 0 0 0 0 0 0
5 2 5 12 16 38 80 120 118 105 61 31 10 3 0 0 0 0 0 0 0 0 0 0 0 0 0 0 0 0 0 0
0 0 0 0 0 0 0 0 2 0 0 0 0 0 1 0 0 0 0 0 0 0 0 0 1 0 0 0 0 0 0 0
0 0 0 0 0 0 1 0 0 0 1 0 0 1 0 0 0 0 0 1 1 0 0 1 0 1 0 0 0 0 0 0
0 0 0 0 0 0 0 0 0 0 0 0 0 0 0 1 0 0 0 1 1 0 0 0 0 0 0 0 0 0 0 0
0 0 0 0 0 0 0 0 0 0 0 0 0 0 0 0 0 0 0 0 2 45 568 2164 2410 733 75 3 0 0 0 0
0 0 0 0 0 0 0 1 0 1 0 1 2 5 0 1 1 0 0 0 0 0 0 0 0 0 0 0 0 0 0 0
0 0 0 0 0 0 1 0 0 0 0 0 0 0 0 0 0 0 0 0 0 0 0 0 0 1 0 0 0 1 0 0
0 0 0 0 0 0 0 0 0 0 0 0 0 0 0 0 0 0 0 0 0 0 0 0 0 0 0 0 0 2 1 2
0 0 0 0 0 1 0 1 1 0 0 0 0 0 0 0 0 0 0 1 0 0 0 0 0 0 0 0 0 0 0 0
0 0 0 0 0 0 1 0 0 1 1 0 1 0 0 0 0 0 0 0 0 0 0 1 0 0 0 0 0 0 1 0
0 0 0 0 0 0 0 0 0 0 0 0 0 1 0 0 0 0 0 0 0 0 1 0 0 0 0 1 0 0 0 0
0 0 1 0 0 0 0 0 0 0 0 0 0 0 0 0 1 0 1 0 0 0 0 0 0 0 0 0 0 0 0 0
0 2 1 1 1 1 1 0 0 0 1 0 0 0 0 0 0 0 0 1 0 0 0 1 0 0 0 0 0 0 0 0
0 0 0 0 0 0 0 0 0 0 0 0 0 0 0 0 0 0 0 0 0 0 0 0 0 0 0 0 0 0 0 0
1 1 0 0 0 0 1 0 0 0 0 0 0 1 1 0 0 0 0 0 1 1 0 0 0 1 0 0 0 0 2 0
0 0 0 0 0 0 0 0 0 0 0 0 0 0 0 0 0 0 0 0 0 0 0 0 0 1 0 0 0 0 0 0
0 0 0 1 1 3 3 3 6 2 1 2 0 0 0 0 0 0 0 0 0 0 0 0 1 0 0 1 0 0 0 0
0 0 0 0 1 0 0 0 1 1 0 1 0 0 1 0 1 0 0 0 0 0 0 0 0 0 1 0 0 0 0 0
0 0 0 0 0 0 0 0 0 0 0 0 0 0 0 0 0 0 0 0 0 0 0 0 0 0 0 0 0 0 0 0
0 0 0 1 0 0 0 0 0 1 0 0 0 0 0 0 2 0 1 1 0 0 0 0 0 1 1 0 0 0 1 0
0 0 0 0 0 0 0 0 0 0 0 0 0 0 0 0 0 0 0 0 0 48 585 2126 2424 747 68 2 0 0 0 0
1 2 1 0 2 1 1 0 0 2 4 4 5 2 3 1 3 2 0 2 0 0 1 1 0 0 0 0 0 1 0 1
0 0 0 0 0 0 0 0 0 0 0 0 0 0 0 0 0 0 1 0 0 0 0 0 0 0 0 0 0 0 0 0
3 2 1 1 1 1 0 2 1 1 0 0 1 1 3 1 2 1 0 2 0 0 1 1 1 0 0 2 1 2 0 1
0 0 0 0 0 1 0 0 0 0 1 1 0 0 1 0 0 0 0 0 0 0 0 0 1 0 0 0 0 0 0 0
0 0 0 0 0 0 0 0 0 0 0 0 0 0 0 0 0 0 0 1 0 0 0 0 0 0 0 0 0 0 0 0
2 0 0 0 1 0 0 0 0 0 0 0 0 0 1 0 0 0 1 1 0 0 1 0 0 0 0 1 1 0 0 0
0 0 0 0 0 0 0 0 0 0 0 0 0 0 0 0 0 0 0 0 0 0 1 0 1 0 0 0 0 0 0 0
0 0 0 1 1 0 0 0 0 1 0 1 0 2 0 0 0 0 0 0 0 0 1 0 0 0 0 0 0 0 0 0
1 0 0 0 0 0 0 0 0 0 1 1 0 0 0 0 0 0 0 0 0 0 0 0 0 1 0 0 0 0 0 0
1 2 1 0 1 3 0 0 0 0 0 0 2 0 1 1 1 1 0 1 0 2 2 1 1 0 2 0 0 2 1 0
1 1 0 1 0 0 0 0 0 0 0 0 0 0 0 0 1 0 0 0 0 0 1 0 0 0 0 0 0 0 0 1
1 0 1 2 7 7 21 30 35 27 17 7 4 0 0 0 2 0 1 2 0 1 1 0 0 0 1 0 2 0 0 0
0 0 0 0 0 0 0 0 0 0 0 0 0 0 0 0 1 0 0 0 0 1 0 0 0 0 1 0 0 0 1 1
0 1 0 0 0 0 0 0 0 0 0 0 0 0 0 0 1 0 0 0 0 0 1 0 0 0 0 0 1 0 0 0
1 0 0 0 0 0 0 0 0 0 0 0 0 0 0 0 0 0 0 0 0 0 0 0 0 0 0 0 0 0 0 0
0 0 0 0 0 0 0 0 0 0 0 0 0 0 0 0 0 0 0 0 0 38 561 2193 2398 742 66 2 0 0 0 0
0 0 0 1 0 1 0 0 1 0 1 1 1 0 1 1 0 1 0 0 0 0 0 0 0 1 0 0 0 1 0 0
0 0 0 1 0 0 0 0 0 0 0 1 0 0 0 0 0 0 0 0 0 0 0 0 0 0 0 0 0 0 0 0
0 0 0 0 0 0 0 0 0 0 0 0 0 0 0 0 0 0 0 0 0 0 1 1 0 0 0 2 2 2 1 0
1 0 0 1 0 0 0 1 0 1 0 0 0 0 1 0 1 0 0 0 0 0 0 0 1 0 0 0 0 0 0 1
1 0 1 0 1 2 1 0 1 0 0 0 0 1 1 0 0 0 0 0 1 0 1 0 2 0 2 1 1 1 1 3
0 0 0 0 0 0 0 0 0 0 0 1 0 0 0 0 0 0 1 0 0 0 1 0 0 1 0 0 0 0 0 0
0 0 0 0 0 0 1 0 0 0 0 0 0 0 0 0 0 0 0 0 0 0 0 0 0 0 0 0 0 0 0 0
0 0 0 1 0 0 0 0 0 0 0 0 0 0 0 0 0 0 0 0 0 0 0 0 1 0 0 0 1 0 0 0
0 0 0 0 0 0 0 0 0 0 0 0 0 0 0 0 0 0 0 0 0 0 0 0 0 0 0 0 0 0 0 0
0 0 0 0 0 0 0 0 0 0 0 0 0 0 0 0 0 0 0 0 0 0 0 0 0 0 0 0 0 0 0 0
0 0 0 0 0 0 0 0 0 0 0 0 1 0 1 0 0 0 1 0 0 0 0 0 0 0 0 0 0 0 0 0
1 6 4 15 18 53 109 128 161 134 86 39 5 4 0 0 0 0 0 0 0 0 0 0 0 0 0 0 0 0 0 0
0 0 0 0 0 0 0 0 0 0 0 0 0 0 0 0 0 0 0 0 2 0 1 0 0 0 0 0 0 0 0 0
2 0 1 0 0 2 0 0 1 1 0 0 1 1 1 0 0 0 2 1 3 0 0 0 0 1 0 0 0 2 0 0
0 1 0 0 0 1 0 0 1 0 0 0 0 0 0 1 1 0 0 0 0 0 0 0 0 0 1 0 0 0 0 0
0 0 0 0 0 0 0 0 0 0 0 0 0 0 0 0 0 0 0 0 0 45 605 2132 2367 787 61 3 0 0 0 0
3 0 0 0 0 0 0 0 0 0 0 2 0 0 0 2 2 1 1 0 0 0 0 0 0 0 0 0 0 0 0 0
0 0 0 0 0 0 0 0 0 0 1 1 0 0 0 0 0 0 0 0 0 0 0 0 0 0 0 0 0 0 0 0
0 0 0 0 0 0 0 0 0 0 0 0 0 0 0 0 0 0 0 1 0 0 0 0 0 0 0 0 0 2 3 1
0 0 0 0 0 0 0 0 1 0 0 0 0 1 0 0 0 0 0 0 0 1 0 0 0 0 0 0 0 0 0 0
0 1 1 1 1 1 0 0 0 0 0 0 0 0 0 0 0 0 0 0 0 0 0 0 1 0 0 0 0 0 0 0
0 1 0 0 0 0 0 0 0 0 0 0 0 0 0 0 1 1 0 0 0 0 0 0 0 0 0 0 0 0 1 0
0 0 0 0 0 0 0 1 0 0 0 0 0 0 0 1 0 1 0 0 0 0 0 0 0 0 1 0 0 0 0 0
0 1 0 1 0 0 0 0 0 0 0 0 0 0 0 0 0 1 0 0 1 0 0 0 0 0 1 0 0 0 1 0
0 0 0 1 0 0 0 0 0 0 0 0 0 0 0 0 0 0 0 0 0 0 0 0 0 0 0 0 0 0 0 0
1 1 1 0 0 1 1 0 0 0 0 0 1 0 0 2 0 0 0 2 0 0 0 0 0 0 0 1 0 2 1 1
0 0 0 1 0 0 0 0 0 0 0 0 0 0 0 0 0 0 0 0 0 0 0 0 1 1 0 0 0 1 0 0
1 0 0 0 0 0 2 3 1 3 2 2 0 0 1 0 0 1 0 0 1 0 0 1 0 0 0 1 1 0 0 1
0 0 0 0 0 1 0 0 0 0 0 0 0 1 0 1 0 0 1 0 0 0 0 0 0 0 0 0 0 0 0 1
0 0 0 0 0 0 0 0 0 0 0 0 0 0 0 0 0 0 0 0 0 0 0 0 0 0 0 0 0 0 0 0
0 0 0 0 0 0 1 0 0 0 0 0 0 1 0 0 0 0 1 0 0 0 0 0 0 0 1 0 0 0 0 0
0 0 0 0 0 0 0 0 0 0 0 0 0 0 0 0 0 0 0 0 1 44 533 2191 2390 759 79 3 0 0 0 0
3 4 5 2 2 3 0 2 3 1 3 2 1 6 2 4 2 1 2 0 0 0 1 0 1 1 0 0 1 0 0 0
0 0 0 0 0 0 0 0 0 0 0 0 0 0 1 0 0 0 0 0 0 0 0 0 0 0 0 0 0 0 0 0
1 1 0 0 2 0 1 1 2 1 1 2 0 0 0 3 1 3 0 1 0 0 1 2 1 4 0 1 0 1 2 4
0 1 0 0 0 1 1 0 0 0 0 0 0 0 0 0 0 0 0 0 0 0 0 1 0 0 0 0 0 0 0 0
0 0 0 1 0 2 0 1 0 0 0 0 0 0 0 0 0 0 1 0 0 1 0 0 0 0 1 0 0 0 1 0
0 0 0 0 0 0 0 0 0 0 0 0 0 1 1 0 0 0 0 1 0 0 0 0 0 0 0 0 0 0 0 0
0 0 0 0 0 0 1 0 0 0 0 0 0 2 0 0 0 0 0 0 0 0 1 0 0 2 0 0 0 1 1 0
1 0 0 0 0 0 0 0 2 1 0 0 0 0 1 0 0 0 0 0 0 0 0 0 0 0 0 1 0 1 0 0
0 0 0 0 0 0 0 0 0 0 0 0 0 0 0 0 0 0 0 0 0 0 0 0 0 0 0 0 0 0 0 0
1 0 1 1 1 3 0 1 0 2 0 0 0 0 0 0 0 0 0 0 0 0 0 0 1 1 1 0 1 0 2 0
0 0 0 0 0 0 0 0 0 1 0 0 0 0 0 0 1 0 2 0 0 0 0 0 1 1 0 0 0 0 1 0
4 2 2 4 9 10 35 60 58 50 29 18 7 5 2 0 0 0 0 0 0 0 0 0 0 1 1 1 0 0 2 1
0 0 0 0 0 1 0 0 0 0 1 0 0 0 0 0 0 0 0 0 1 0 0 0 0 0 0 0 0 1 0 0
0 0 0 0 0 0 0 0 0 1 0 0 0 0 0 0 0 1 1 0 0 1 0 0 0 1 0 0 0 0 0 0
0 0 1 1 0 0 0 1 0 0 0 0 0 0 0 0 0 1 0 1 0 1 0 0 0 0 0 0 0 0 1 0
0 0 0 0 0 0 0 0 0 0 0 0 0 0 0 0 0 0 0 0 2 48 577 2092 2441 763 74 3 0 0 0 0
0 0 0 0 0 0 0 0 0 1 1 0 1 1 3 2 0 0 1 1 1 0 0 0 0 0 0 0 0 0 0 0
0 0 0 0 0 1 0 0 0 1 0 1 0 0 0 0 0 0 0 0 0 0 0 0 0 0 0 0 0 0 0 0
0 0 0 0 0 0 0 0 0 0 0 0 0 0 0 0 0 0 0 1 1 0 0 2 0 0 3 5 3 6 8 8
0 0 0 0 0 0 0 1 0 0 0 1 0 0 0 0 0 0 0 0 0 0 0 0 0 0 0 0 0 1 0 0
2 1 2 2 4 0 1 0 1 1 0 0 1 0 2 0 3 1 0 0 1 1 0 1 3 2 1 1 0 0 2 0
0 2 0 0 0 0 0 0 0 0 0 0 0 0 0 0 0 0 0 0 0 0 0 1 0 0 0 0 1 0 0 1
0 0 0 0 0 0 0 0 0 0 0 0 0 0 0 0 0 0 0 0 0 0 0 0 0 0 0 0 0 0 0 2
0 0 2 0 2 0 1 0 0 0 0 0 1 0 0 0 0 0 0 0 0 0 0 0 0 0 0 0 0 0 0 0
0 0 0 0 0 0 1 0 0 0 0 0 0 0 0 0 0 0 0 0 0 0 0 0 0 0 0 0 0 0 0 0
0 0 0 0 0 0 0 0 0 0 0 0 0 0 0 0 0 0 0 0 0 0 0 0 0 0 0 0 0 0 0 0
0 1 0 1 0 0 0 0 0 0 0 0 0 0 0 0 0 0 0 0 0 0 1 1 0 0 0 0 0 0 0 0
9 7 9 10 27 87 126 204 209 142 106 66 18 7 1 0 0 0 0 0 0 0 0 0 0 0 0 0 0 0 0 0
0 0 0 0 0 0 0 0 0 0 0 0 0 0 0 1 1 1 0 0 0 1 1 0 0 0 0 0 0 0 1 0
0 0 0 0 0 1 0 1 0 0 0 0 2 0 0 0 0 0 2 1 1 0 1 1 0 0 0 0 0 0 0 0
0 0 0 0 0 1 0 0 0 0 0 0 0 0 0 0 1 0 0 0 0 1 0 0 0 0 1 0 0 0 0 0
0 0 0 0 0 0 0 0 0 0 0 0 0 0 0 0 0 0 0 0 0 38 526 2136 2386 829 84 1 0 0 0 0
1 2 1 0 1 1 1 1 0 0 1 0 0 2 0 3 3 0 0 0 0 0 0 0 0 0 0 0 0 0 1 0
0 0 0 0 0 0 0 0 0 0 0 0 0 0 0 0 0 0 0 0 0 0 1 1 0 0 0 0 0 0 0 0
1 0 0 0 0 0 0 0 0 0 0 1 0 0 1 0 0 0 0 0 1 0 0 0 0 0 0 0 1 3 2 5
0 0 0 0 0 0 0 0 0 0 0 1 1 0 0 0 0 0 0 0 0 0 0 0 0 0 0 0 0 0 0 0
0 0 0 0 1 1 0 1 0 1 0 0 0 0 0 0 0 1 0 0 0 0 0 0 0 0 0 0 1 0 1 0
0 0 0 0 0 0 0 0 0 0 0 0 0 1 0 0 1 1 0 0 1 0 0 1 0 0 0 0 0 0 1 0
1 0 0 0 0 1 0 0 0 2 0 0 0 0 0 1 0 0 0 0 0 0 0 0 0 0 0 0 0 0 0 0
0 0 0 0 0 0 0 1 0 1 0 1 1 0 1 0 0 0 0 0 1 0 0 0 0 0 0 0 0 0 0 2
0 0 0 0 0 0 0 0 0 0 0 0 0 0 0 0 0 0 0 0 0 0 0 0 0 0 0 1 0 0 0 0
2 0 0 0 1 2 0 0 0 0 0 2 0 0 1 1 0 1 1 0 0 0 0 1 0 0 0 2 1 1 0 0
0 1 0 0 0 0 0 0 0 0 0 0 0 0 0 0 0 0 0 0 0 0 0 0 0 0 0 0 0 1 0 1
1 1 1 1 2 2 3 6 6 5 3 1 1 0 0 0 1 1 0 0 0 0 0 1 1 0 1 1 2 0 0 0
1 0 0 0 1 0 0 0 0 0 0 0 0 0 0 1 1 1 0 0 0 0 0 0 0 0 0 0 1 0 1 0
0 0 0 0 0 0 0 0 0 0 0 0 0 0 0 0 0 0 0 0 0 0 0 0 0 0 0 0 0 0 0 0
0 1 0 0 0 0 0 0 1 0 0 0 0 0 0 0 0 0 0 0 0 1 0 0 0 0 1 0 0 0 1 0
0 0 0 0 0 0 0 0 0 0 0 0 0 0 0 0 0 0 0 0 2 42 566 2164 2402 750 74 0 0 0 0 0
2 6 2 1 3 0 0 1 2 3 1 0 2 4 6 4 2 1 0 0 0 0 1 0 0 1 0 1 0 0 0 1
0 0 0 1 0 0 0 0 0 0 0 0 0 0 0 0 0 0 0 0 0 1 0 0 0 0 0 0 0 0 0 0
1 1 5 2 2 1 1 1 1 4 2 0 3 0 2 4 1 0 1 1 2 0 2 2 1 0 3 4 2 2 1 1
0 0 0 0 0 0 0 0 1 0 1 0 1 0 1 0 0 0 0 1 1 0 1 0 0 0 0 0 0 0 0 0
0 0 1 0 0 0 0 0 0 1 1 0 0 0 1 0 1 1 0 0 0 0 0 0 0 0 0 1 0 1 1 0
0 2 0 0 0 1 1 0 1 0 0 1 0 0 1 0 1 1 0 1 0 1 0 1 0 0 0 0 0 0 1 0
0 0 0 2 1 0 1 1 0 0 0 0 0 0 0 0 0 0 0 0 0 0 0 0 0 0 1 0 0 0 2 0
0 2 1 1 0 0 0 0 1 0 0 0 0 1 1 2 0 0 0 0 0 2 1 0 0 0 0 0 0 1 0 0
0 0 0 0 0 0 0 0 0 0 0 0 0 0 0 0 0 0 0 0 0 0 0 0 1 0 0 0 0 0 0 0
1 0 0 0 3 0 1 0 0 1 0 0 0 0 2 1 0 2 0 0 1 4 0 0 1 2 0 2 1 0 3 0
0 0 0 0 0 0 0 0 0 0 0 0 0 0 0 0 0 0 0 0 0 1 0 1 0 0 0 0 0 0 0 0
7 3 3 5 21 28 52 73 74 62 46 25 7 2 0 1 1 3 1 0 1 0 0 2 1 2 1 3 2 2 1 0
0 0 0 0 1 3 1 0 0 1 0 0 0 1 1 0 0 0 0 0 1 1 0 1 0 0 0 0 1 0 1 2
1 1 0 0 0 0 0 0 1 0 0 0 1 0 0 0 1 2 2 1 2 0 0 2 2 1 0 3 1 0 0 0
0 1 0 0 1 0 1 0 1 0 1 0 0 0 0 0 0 0 0 1 1 0 0 0 0 0 0 1 0 0 1 0
0 0 0 0 0 0 0 0 0 0 0 0 0 0 0 0 0 0 0 0 1 52 595 2158 2318 806 65 5 0 0 0 0
0 0 0 0 0 0 0 0 0 0 1 2 1 0 0 1 0 1 2 1 1 0 0 0 0 0 0 0 0 0 0 0
0 0 0 0 0 0 0 0 0 0 1 0 0 0 0 0 0 1 0 0 0 0 0 0 0 0 0 0 0 0 0 0
0 1 0 0 1 0 1 0 0 0 0 1 0 0 0 0 1 0 2 1 5 3 1 5 2 8 10 18 32 43 43 45
0 0 0 0 0 0 2 0 1 0 1 0 0 0 1 0 0 0 0 1 0 0 0 0 0 0 0 0 0 0 0 0
2 4 3 4 6 0 3 3 2 1 1 1 1 0 1 1 0 1 3 0 0 2 1 3 2 3 2 2 1 2 2 1
0 0 0 1 0 0 0 0 0 0 0 0 0 0 0 0 1 0 0 0 1 0 0 0 1 0 0 0 0 0 0 0
0 0 1 0 1 0 0 0 1 0 0 0 0 0 0 0 0 0 0 0 1 0 0 0 0 0 0 1 0 0 0 0
1 1 2 1 0 0 0 0 1 0 0 0 0 0 1 0 0 0 0 0 0 0 0 0 0 0 0 0 0 0 0 0
0 0 0 0 0 0 0 0 0 0 0 0 0 0 0 0 0 0 0 0 0 0 0 0 0 0 0 0 0 0 0 0
0 0 0 0 0 0 0 0 0 0 0 0 1 0 0 0 0 0 0 0 0 0 0 0 1 0 0 0 0 0 0 0
0 2 0 0 0 0 0 0 0 0 0 0 0 0 0 1 0 0 0 0 0 0 0 0 0 1 0 0 2 0 0 0
4 9 15 18 50 90 162 246 262 224 141 66 29 6 2 0 0 0 0 0 0 0 0 0 0 0 0 0 0 0 0 0
0 1 0 0 0 0 0 0 0 0 0 0 0 1 0 0 0 0 0 0 0 0 0 0 0 0 0 0 0 0 0 0
0 1 1 0 0 0 0 0 0 3 0 2 0 1 0 2 0 0 1 0 0 1 0 0 1 0 0 0 0 0 0 0
0 0 0 0 0 0 0 0 0 0 0 1 0 1 0 1 0 0 0 0 0 1 0 0 0 0 0 0 0 0 0 0
0 0 0 0 0 0 0 0 0 0 0 0 0 0 0 0 0 0 0 0 0 45 557 2234 2294 789 81 0 0 0 0 0
0 0 0 2 0 0 0 1 2 0 1 0 0 1 2 0 0 1 0 1 0 0 0 0 0 0 0 0 1 0 0 0
0 0 0 0 0 0 0 0 0 0 0 0 0 0 0 0 0 0 0 0 0 0 0 0 0 1 0 0 0 0 0 0
0 0 0 0 0 0 0 0 0 0 0 0 0 0 0 0 0 0 0 0 0 0 2 0 0 1 0 7 2 2 6 0
0 0 0 0 0 0 0 0 0 0 0 0 0 0 0 0 1 0 0 0 0 0 0 0 0 0 0 0 1 1 0 0
0 0 0 1 1 1 1 2 0 0 0 0 0 0 0 1 0 0 0 0 0 1 0 0 1 0 1 0 0 0 1 1
0 0 0 0 0 1 0 0 0 1 0 0 1 1 0 2 0 1 0 0 0 0 0 0 0 0 0 0 0 0 0 0
0 0 0 0 0 0 0 0 0 0 1 0 1 0 0 0 0 1 1 1 0 0 0 0 0 0 0 1 0 0 0 0
0 1 0 1 0 0 0 1 1 0 0 0 0 0 0 0 1 0 0 0 0 1 0 0 0 0 1 0 0 1 0 0
0 0 0 0 0 0 0 0 0 0 0 0 0 0 0 0 0 0 0 0 0 0 0 0 0 0 0 0 0 0 0 0
1 0 0 0 0 0 0 1 0 0 0 0 0 0 1 0 0 1 0 2 1 3 0 0 1 0 1 0 0 0 1 1
0 0 0 1 1 0 0 0 0 0 1 0 0 0 0 0 0 0 0 0 0 0 0 0 0 0 0 0 0 0 0 0
0 0 0 0 2 4 5 6 6 5 8 2 0 0 0 0 0 0 1 0 2 1 1 1 0 0 0 0 0 0 0 2
0 0 0 0 0 0 0 0 0 1 0 0 0 1 0 0 0 0 0 0 0 0 0 0 0 1 0 0 0 1 1 0
0 0 0 0 0 0 0 0 0 0 0 0 0 0 0 0 0 0 0 0 0 0 0 0 0 0 0 0 0 0 0 0
1 0 0 0 0 0 0 0 0 0 0 1 0 1 0 0 1 0 0 0 0 0 0 0 0 1 1 0 0 0 0 1
0 0 0 0 0 0 0 0 0 0 0 0 0 0 0 0 0 0 0 0 2 40 579 2191 2365 737 84 2 0 0 0 0
5 2 2 2 1 3 0 3 2 5 3 1 6 8 4 1 1 1 0 0 0 0 1 1 0 0 2 0 0 0 0 1
0 0 0 0 0 0 0 1 0 0 0 0 0 0 0 0 0 0 0 1 0 0 0 0 0 0 0 0 1 0 0 0
2 3 1 7 1 1 2 2 3 5 0 2 0 2 2 2 0 1 2 4 0 3 1 2 2 3 0 4 2 3 3 3
0 0 0 0 0 0 1 0 0 0 0 0 1 2 0 0 0 0 0 0 0 1 0 0 1 0 0 0 0 0 0 0
0 0 1 0 2 0 0 0 1 0 1 1 1 0 0 0 1 1 0 0 2 1 0 0 0 1 0 1 2 0 1 2
0 0 1 0 1 0 0 0 1 0 0 0 0 1 0 0 2 0 1 0 0 0 0 0 0 1 0 0 0 0 0 0
1 0 0 0 0 1 0 0 1 3 0 0 0 0 0 0 1 0 1 0 0 2 0 0 2 0 0 0 0 0 0 0
0 1 0 2 1 1 1 0 0 0 0 0 0 1 0 0 0 0 0 1 0 0 1 0 0 0 0 0 0 0 0 0
0 0 0 0 0 1 0 0 0 0 0 0 0 0 0 0 0 0 0 0 0 0 0 0 0 0 0 0 0 0 0 0
3 1 1 0 0 2 0 1 1 0 0 1 1 0 0 1 0 0 1 2 1 1 3 0 1 0 0 0 0 1 0 0
0 0 0 0 0 0 0 0 0 0 0 0 0 1 0 0 0 0 0 0 0 0 0 0 0 1 0 0 0 0 1 0
3 4 4 7 17 43 62 120 114 107 56 30 14 4 2 2 2 1 0 1 0 1 3 3 2 3 1 1 1 1 1 2
0 1 0 0 0 0 0 1 0 0 1 0 2 0 0 0 0 0 0 0 0 0 0 0 0 0 0 0 1 1 0 1
1 0 0 0 0 3 3 4 5 2 1 1 1 1 0 3 13 7 6 6 2 2 0 1 3 5 2 0 1 0 2 0
0 0 0 0 0 0 0 2 0 0 0 0 0 0 0 0 0 0 0 0 0 0 0 1 0 0 0 0 0 1 0 0
0 0 0 0 0 0 0 0 0 0 0 0 0 0 0 0 0 0 0 0 0 47 575 2110 2423 773 71 1 0 0 0 0
0 0 0 0 0 0 0 0 0 0 0 0 1 1 3 3 0 0 1 0 0 0 0 1 0 0 0 0 0 0 0 0
0 0 0 1 0 0 0 0 0 0 0 0 0 0 0 0 0 0 0 0 0 1 0 0 0 0 0 0 1 0 0 0
3 1 1 0 2 0 0 0 0 1 0 2 1 1 0 3 3 4 1 7 4 4 4 4 7 4 14 20 61 73 66 84
0 0 0 0 0 0 0 0 0 0 1 0 0 0 0 0 0 0 0 0 0 3 0 0 0 0 2 0 0 1 1 0
2 3 2 4 7 7 4 0 1 3 1 1 0 1 1 1 1 3 2 2 4 0 4 1 3 3 4 2 1 3 6 6
0 0 0 0 0 0 0 1 0 0 1 0 0 0 0 0 0 1 0 0 0 0 0 0 0 0 0 0 0 0 0 0
1 2 0 0 2 0 0 0 1 0 1 1 1 0 1 2 0 1 3 0 1 1 0 0 1 0 0 1 1 1 2 0
2 0 0 0 1 0 3 0 1 0 0 0 0 0 1 0 0 0 0 0 0 0 0 0 0 0 0 0 0 0 0 0
0 0 0 0 0 0 0 0 0 0 0 0 0 0 0 0 0 0 0 0 0 0 0 0 0 0 0 0 0 0 0 0
0 0 0 0 0 0 0 0 0 0 0 0 0 0 0 0 0 0 0 0 0 0 0 0 0 0 0 0 0 0 0 1
0 0 0 0 1 0 0 0 0 0 0 0 0 0 0 0 0 0 0 1 0 0 0 0 0 0 0 0 0 0 0 1
13 12 11 26 56 132 228 319 375 280 194 89 31 12 1 0 0 0 0 0 0 0 0 0 0 0 0 0 0 0 0 0
0 0 0 0 0 0 0 1 0 0 0 1 0 0 0 0 1 0 0 0 0 0 0 0 0 0 0 0 1 0 0 0
1 0 2 1 2 0 0 0 0 3 1 2 0 1 1 1 2 0 1 1 2 0 0 0 1 1 2 0 2 0 0 0
0 0 0 0 0 1 0 0 1 0 0 0 0 0 0 1 0 0 0 1 0 0 0 0 0 0 0 0 0 0 0 0
0 0 0 0 0 0 0 0 0 0 0 0 0 0 0 0 0 0 0 0 0 33 577 2161 2395 750 81 3 0 0 0 0
0 2 0 0 0 0 1 0 0 2 3 4 3 1 2 1 3 0 2 1 0 0 1 0 0 0 1 0 1 0 0 0
0 0 0 0 0 0 0 0 0 0 0 0 0 0 0 0 0 0 0 0 0 1 0 0 0 0 0 0 0 0 1 0
0 0 2 0 0 0 0 0 0 0 0 0 0 0 1 1 0 0 1 0 1 0 1 0 5 1 3 6 8 19 15 19
0 0 0 0 0 0 0 1 0 0 0 0 0 0 0 0 0 0 0 0 0 0 0 0 0 0 0 0 0 0 0 1
0 0 1 1 1 4 0 0 1 0 1 0 1 0 1 0 1 1 0 0 0 0 1 0 0 0 0 3 0 0 1 0
2 0 0 0 1 0 1 0 0 0 1 0 0 1 0 0 1 1 0 0 0 0 1 0 1 0 0 0 0 0 0 0
0 0 0 0 0 2 0 0 0 0 0 0 0 0 0 0 0 0 0 0 0 0 0 0 0 0 0 0 0 0 0 0
0 0 1 0 1 2 0 0 0 0 1 0 1 0 0 0 0 1 0 0 0 0 1 0 0 1 0 0 0 0 0 0
0 0 1 0 0 0 0 0 0 0 0 0 0 0 0 0 0 0 0 0 0 0 0 0 0 0 0 0 0 0 0 0
1 1 1 0 0 0 1 0 0 0 1 1 1 1 0 0 0 0 1 0 0 1 1 2 0 0 0 2 0 0 0 0
4 0 0 0 0 0 0 0 0 0 0 0 0 0 0 0 0 0 1 0 0 0 0 0 0 1 0 0 0 0 0 0
1 1 1 1 2 7 13 13 12 19 6 4 4 0 0 0 0 1 0 2 0 0 1 1 1 0 2 0 1 2 0 1
1 1 0 0 0 0 0 1 0 0 0 0 0 0 0 1 1 0 0 0 1 1 0 0 0 0 0 0 0 1 0 0
0 0 0 0 0 0 0 0 0 0 0 0 0 0 0 0 0 0 0 0 0 0 0 0 0 0 0 0 0 0 0 0
0 0 0 0 1 0 0 0 0 0 0 0 0 0 0 0 1 0 1 0 0 1 1 0 0 0 0 0 0 0 0 0
0 0 0 0 0 0 0 0 0 0 0 0 0 0 0 0 0 0 0 0 1 45 574 2141 2400 762 76 1 0 0 0 0
8 3 2 3 1 0 1 2 3 3 2 5 3 4 6 2 4 2 1 0 1 0 0 1 0 0 1 1 0 0 1 1
0 0 1 0 0 0 0 0 0 0 0 0 0 0 0 0 1 0 0 0 0 0 0 0 0 0 0 0 0 0 0 0
3 2 4 3 1 7 3 3 2 2 3 0 3 0 2 1 2 3 2 3 4 2 2 2 3 1 0 3 1 5 4 1
0 0 0 0 0 0 0 0 0 0 0 0 0 0 1 0 0 0 1 0 0 1 0 2 0 0 1 0 1 1 0 0
0 0 1 1 0 4 1 1 0 0 1 0 0 0 1 1 1 1 1 1 2 2 0 2 2 4 0 2 3 1 4 0
0 0 0 0 0 0 0 1 0 0 0 0 0 0 0 1 0 0 0 0 0 0 1 1 0 0 0 0 0 1 0 0
0 0 0 1 1 1 1 1 3 4 2 0 0 2 0 0 0 1 1 0 0 0 0 1 1 0 0 1 0 0 1 2
2 0 2 0 0 1 2 0 0 0 0 0 0 0 0 0 0 0 0 0 0 0 0 0 0 0 0 0 1 0 0 0
0 0 0 0 0 0 0 0 0 0 0 0 0 0 0 0 0 0 1 0 0 0 0 0 0 0 0 0 0 0 0 0
5 0 1 0 1 0 3 1 2 2 2 0 0 0 0 0 2 1 1 1 0 0 0 1 0 1 0 0 3 2 1 1
0 1 0 0 0 0 1 0 0 1 1 0 0 0 0 0 0 0 0 0 0 0 0 0 0 0 0 0 0 0 0 0
4 10 10 13 26 67 99 138 150 123 68 36 14 7 1 1 1 3 4 1 2 8 2 1 0 3 1 4 1 3 3 5
1 0 0 0 0 0 1 1 0 0 0 0 0 0 0 0 0 0 0 0 0 0 0 0 1 0 0 0 1 0 1 0
1 0 0 0 3 2 3 9 15 9 7 2 1 2 5 10 22 23 26 22 9 6 5 2 15 14 17 12 6 2 3 2
0 0 0 0 2 0 0 0 0 0 0 0 0 0 0 0 0 0 0 0 0 1 0 0 0 0 0 0 0 1 0 0
0 0 0 0 0 0 0 0 0 0 0 0 0 0 0 0 0 0 0 0 3 31 597 2166 2372 750 77 4 0 0 0 0
0 2 2 0 0 1 1 0 0 2 1 0 4 2 1 2 3 1 1 1 0 0 1 0 1 0 0 0 0 1 0 0
0 0 1 0 1 0 0 0 0 0 0 0 0 0 0 0 0 0 0 0 0 0 0 0 0 0 0 0 0 0 0 1
0 0 0 0 0 0 0 0 0 1 0 1 2 0 2 0 1 2 1 1 2 2 1 1 2 5 7 6 20 25 40 25
0 0 0 0 0 0 2 1 0 0 0 0 1 0 0 0 1 0 0 1 2 0 0 0 0 0 0 0 0 0 2 0
2 0 8 13 9 9 7 5 1 2 5 3 5 2 3 3 2 4 3 2 2 4 5 5 3 6 3 4 5 5 3 6
0 0 0 0 0 0 0 1 0 0 1 0 0 1 0 1 0 1 1 0 0 0 0 0 0 0 0 0 0 1 0 0
0 0 0 1 1 1 0 0 0 1 1 2 2 0 0 1 0 1 0 2 2 0 0 1 1 1 1 1 0 1 2 0
0 0 1 0 0 0 1 1 0 0 0 0 1 1 0 0 0 0 0 0 0 0 0 0 0 0 0 0 1 0 0 1
0 0 0 0 0 0 0 0 0 0 0 0 0 0 0 0 0 0 0 0 0 0 0 0 0 0 0 0 0 0 0 0
0 1 0 0 0 0 0 0 0 0 0 0 0 0 0 1 0 0 0 0 0 0 0 0 2 1 0 0 0 0 0 0
0 2 0 0 0 0 1 0 0 0 0 0 0 0 0 0 0 0 0 0 0 0 0 0 0 0 0 2 0 0 0 0
16 19 23 29 86 184 320 468 448 450 229 130 43 15 2 0 0 0 0 0 0 0 0 0 0 0 0 0 0 0 0 0
0 0 0 0 0 0 0 0 2 0 0 0 0 1 0 0 0 0 0 0 0 0 0 0 0 0 0 0 0 0 0 0
1 1 3 0 0 1 1 2 3 3 1 1 1 1 0 3 0 1 3 4 2 2 0 1 1 1 3 1 1 1 0 0
0 0 0 0 0 0 0 0 0 0 0 0 0 0 0 0 0 0 0 0 0 1 0 0 0 0 1 0 1 0 0 0
0 0 0 0 0 0 0 0 0 0 0 0 0 0 0 0 0 0 0 0 1 55 592 2169 2333 763 86 1 0 0 0 0
1 2 2 1 1 0 0 1 2 4 1 2 2 2 2 3 2 1 0 1 0 0 0 1 0 0 0 0 1 0 0 0
0 0 0 0 0 0 0 0 0 0 0 0 1 0 0 0 0 0 0 0 0 0 0 0 0 0 0 0 0 0 0 1
1 2 1 0 0 2 1 0 2 0 0 0 1 1 0 2 3 4 4 5 8 9 3 1 4 7 14 20 38 64 74 76
0 0 0 0 0 0 0 0 1 0 0 0 0 0 0 0 0 0 0 0 1 0 0 0 0 0 0 0 0 0 0 0
1 1 1 2 2 1 1 1 0 0 0 0 0 0 0 0 1 0 1 0 0 0 1 0 1 0 0 0 2 1 0 0
0 0 1 0 1 0 0 0 1 0 0 0 0 0 0 0 0 0 0 0 0 0 0 0 0 1 0 0 0 0 0 0
0 0 0 0 0 1 2 0 0 0 0 0 0 0 1 0 0 0 0 0 1 0 0 0 0 0 0 1 1 0 0 0
0 1 2 1 0 2 2 0 0 0 0 1 0 0 0 2 0 0 0 0 0 0 0 0 0 0 1 0 0 0 0 1
0 0 0 0 0 0 0 0 0 0 0 0 0 0 0 0 0 0 0 0 0 0 0 0 0 0 0 0 0 0 0 0
1 0 0 1 0 0 0 2 0 3 0 0 1 2 0 2 0 1 0 0 0 1 1 1 0 1 0 2 0 0 0 0
0 0 0 0 0 0 0 1 1 0 1 0 0 0 0 0 0 0 0 1 0 0 0 0 0 0 1 0 0 0 0 0
2 1 0 2 0 5 5 10 14 10 7 2 0 3 0 1 1 3 1 0 2 3 1 1 2 1 0 2 2 3 0 1
0 0 0 0 0 0 0 0 1 0 0 0 0 1 0 0 0 0 0 0 0 0 1 0 0 0 0 0 0 0 1 0
0 0 0 0 0 0 0 0 0 0 0 0 0 0 0 0 0 0 0 0 0 0 0 0 0 0 0 0 0 0 0 0
0 1 0 0 0 0 0 0 0 0 1 0 0 0 0 0 1 0 0 0 0 0 0 0 0 1 0 0 0 0 0 0
0 0 0 0 0 0 0 0 0 0 0 0 0 0 0 0 0 0 0 0 1 39 604 2162 2363 754 76 1 0 0 0 0
2 1 3 0 1 3 1 2 1 3 3 6 6 5 4 7 3 0 4 0 1 1 1 0 0 1 2 1 0 0 1 0
0 0 0 0 0 0 0 0 0 0 0 0 0 0 0 0 0 0 0 0 0 0 0 0 0 0 0 0 0 0 0 1
2 2 4 1 1 3 3 2 4 2 3 2 6 5 2 3 3 5 0 1 1 1 4 2 5 2 0 3 4 0 5 2
1 0 0 0 0 1 0 0 0 1 0 1 0 0 0 0 0 1 0 0 0 0 0 0 0 0 0 0 1 0 0 0
0 0 3 4 3 1 2 3 2 2 1 2 2 1 2 3 2 3 3 3 3 1 3 0 5 2 6 4 3 1 1 4
0 0 0 0 0 0 0 0 0 0 1 0 0 0 0 0 0 1 1 1 0 0 1 0 1 0 0 0 1 0 0 0
0 1 0 0 0 0 2 5 11 6 6 1 0 0 1 1 2 3 1 2 1 1 0 1 0 0 0 0 0 0 1 0
1 0 1 2 0 0 0 0 0 0 0 0 0 1 0 0 1 1 0 0 0 0 0 0 0 0 0 0 0 0 0 0
1 0 1 0 0 0 0 0 0 0 0 0 0 0 0 0 0 0 0 0 0 0 0 1 0 0 0 0 0 0 0 0
3 0 0 4 0 2 1 3 1 1 2 2 0 2 1 3 2 0 0 2 1 1 1 1 1 0 0 2 1 1 1 2
0 0 0 0 0 0 0 1 0 0 0 0 1 0 0 0 1 0 0 0 0 0 0 0 0 1 0 0 0 0 0 0
9 6 3 17 23 37 67 105 142 86 41 38 6 3 6 1 2 2 3 6 4 1 2 1 2 6 5 8 3 3 5 2
0 0 1 0 0 0 0 1 0 0 0 0 0 1 0 1 0 1 0 0 0 0 0 0 0 0 0 0 0 0 0 0
4 0 2 1 4 8 18 47 57 31 19 5 0 1 16 23 59 63 67 55 20 12 8 9 24 26 25 15 6 4 4 3
0 0 1 0 1 0 0 1 0 0 2 1 1 1 0 0 1 0 0 0 0 0 0 1 0 0 0 0 1 0 0 0
0 0 0 0 0 0 0 0 0 0 0 0 0 0 0 0 0 0 0 0 1 47 540 2125 2428 795 62 2 0 0 0 0
0 0 1 0 0 0 0 0 1 0 3 1 3 4 1 3 1 1 1 0 0 0 2 0 0 0 0 0 0 0 0 0
0 0 1 0 0 0 0 1 0 0 0 0 0 0 0 0 0 0 0 0 0 0 0 0 0 0 0 0 0 0 0 0
0 0 0 0 1 0 0 0 0 0 0 1 1 1 0 0 1 0 1 0 0 1 1 0 0 0 1 0 1 3 5 3
0 0 0 0 2 0 0 0 0 0 1 1 0 0 0 0 0 0 0 0 0 0 0 0 0 0 0 1 0 0 0 0
2 6 10 5 16 11 6 3 6 5 2 3 5 6 5 7 8 7 2 8 4 6 3 9 7 5 7 10 7 11 6 13
0 1 0 0 0 0 1 0 0 0 0 0 0 0 1 0 0 0 2 0 0 0 0 1 0 0 1 0 0 0 0 0
2 0 3 0 3 3 0 1 1 1 0 2 2 2 1 1 0 0 0 1 0 1 1 1 2 1 3 1 0 1 2 2
2 0 0 0 0 1 1 0 0 0 0 0 0 0 0 1 0 0 0 0 0 0 0 0 0 0 0 0 1 0 0 0
0 0 0 0 0 0 0 0 0 1 0 0 0 0 0 0 0 0 0 0 0 0 0 0 0 0 0 0 0 0 0 0
0 0 0 0 0 2 1 0 0 0 0 0 0 1 0 0 0 0 0 0 0 0 0 0 2 0 0 0 0 0 0 0
0 0 1 0 0 0 0 0 0 0 1 0 0 0 0 1 0 0 0 0 0 0 0 1 0 0 0 0 0 0 0 0
23 16 32 46 116 264 433 589 710 556 352 160 56 17 5 1 0 0 0 0 0 0 0 0 0 0 1 0 0 0 0 0
0 0 0 0 0 0 0 1 1 0 1 0 1 0 0 0 0 0 1 0 0 1 0 0 0 1 0 0 0 0 0 0
0 1 1 1 1 2 3 4 4 3 2 2 2 2 1 1 3 6 6 3 3 2 3 2 1 0 4 1 1 2 2 3
0 0 1 0 0 0 0 0 0 0 0 0 1 0 0 1 0 1 0 0 0 0 0 0 0 0 0 0 1 0 0 0
0 0 0 0 0 0 0 0 0 0 0 0 0 0 0 0 0 0 0 0 1 49 570 2199 2375 728 76 2 0 0 0 0
0 2 0 1 0 1 1 3 3 3 3 2 0 3 1 2 1 2 1 0 0 0 0 0 1 0 1 0 0 0 2 0
0 0 0 0 0 0 0 0 0 0 0 0 0 0 1 0 0 0 0 0 0 0 0 0 0 0 0 0 0 0 0 0
5 4 1 1 2 1 1 1 3 1 3 4 2 1 4 7 7 4 1 9 11 18 12 18 15 24 45 80 141 202 209 172
0 0 0 1 0 0 1 0 0 1 0 0 0 0 0 1 0 0 0 0 0 0 0 0 1 0 0 0 0 0 0 0
1 0 1 2 0 2 2 2 1 1 0 0 1 0 1 0 0 1 0 0 2 0 0 1 1 0 2 0 1 1 1 4
0 0 1 0 0 0 0 0 0 1 0 0 0 0 0 0 0 0 0 0 0 1 0 0 0 1 0 0 0 0 0 0
0 0 0 0 1 0 0 0 0 0 1 0 0 0 0 1 0 0 0 0 1 0 1 0 0 0 0 2 0 0 0 0
0 1 0 0 0 1 1 1 0 1 1 0 0 0 1 0 0 1 0 0 0 0 0 0 1 0 0 0 1 0 0 0
0 0 0 0 0 0 0 0 0 0 0 0 0 0 0 0 0 0 0 0 0 0 0 0 0 0 0 0 0 0 0 0
1 1 0 0 0 0 1 1 0 0 1 1 0 0 3 3 1 1 0 1 0 2 1 1 1 0 0 3 0 2 0 0
0 0 0 0 0 0 0 1 0 0 0 0 1 0 0 0 0 0 0 0 0 0 0 0 0 0 0 1 0 0 0 0
0 2 0 0 3 2 9 10 17 9 9 1 1 1 2 1 2 5 1 3 2 0 1 3 1 1 2 4 4 4 0 1
1 0 1 1 0 1 0 0 0 0 0 0 0 0 0 2 0 0 1 0 0 0 0 0 1 0 0 0 0 0 0 0
3 0 0 0 0 0 0 0 0 0 0 0 0 0 0 0 0 0 0 0 0 0 0 0 0 0 0 0 0 0 0 0
0 0 0 0 0 1 0 0 0 0 0 0 1 0 0 1 0 0 1 0 0 0 0 0 0 0 0 0 0 0 1 0
0 0 0 0 0 0 0 0 0 0 0 0 0 0 0 0 0 0 0 0 1 46 597 2208 2308 761 79 0 0 0 0 0
2 3 3 0 3 0 1 2 3 4 8 3 3 3 6 5 1 2 2 1 0 0 0 0 0 0 0 0 0 0 0 0
0 0 0 0 0 0 1 0 0 0 0 0 0 0 0 0 0 0 0 0 0 0 0 0 0 0 0 0 0 0 0 1
4 4 4 2 3 2 3 5 3 3 2 1 2 5 6 1 1 2 7 2 5 4 3 2 2 1 5 2 5 4 5 4
0 0 0 0 0 0 1 1 0 0 0 0 0 0 0 0 0 0 0 0 0 0 0 0 0 0 0 0 0 0 0 0
2 5 6 3 2 3 7 5 4 6 3 7 2 2 2 7 4 3 3 3 3 6 6 3 14 3 9 8 14 14 4 6
0 3 0 1 1 0 0 2 0 1 0 0 0 0 0 0 0 0 0 0 1 0 2 0 0 0 0 0 1 0 0 0
1 1 1 0 0 4 5 5 17 24 11 2 1 1 1 3 3 9 5 1 2 2 1 0 1 1 1 2 0 1 1 4
2 0 1 1 1 0 0 0 0 0 1 0 0 0 0 1 0 0 0 0 0 0 0 0 2 0 0 0 0 0 0 0
0 0 0 0 0 0 0 0 0 0 0 0 0 0 0 0 0 0 0 0 0 0 0 0 0 0 0 0 1 0 0 0
1 4 2 0 0 2 1 1 4 0 0 1 1 4 1 2 1 1 2 1 1 1 2 0 0 0 1 2 0 0 1 2
0 1 0 0 0 0 1 0 1 0 1 0 0 0 1 0 0 0 0 0 0 0 0 1 0 0 0 0 0 0 0 0
10 10 14 24 36 65 116 192 199 170 107 55 29 9 11 4 6 4 12 9 9 3 7 12 11 5 5 3 7 6 4 6
0 0 1 0 1 0 0 1 2 0 1 0 0 0 1 0 1 0 0 0 0 0 1 0 0 0 0 0 0 0 0 0
10 3 0 2 1 7 14 24 19 23 11 2 2 1 4 9 24 28 35 29 7 8 5 4 12 12 11 7 3 5 2 0
1 0 0 0 0 0 0 0 0 0 0 0 1 0 0 0 0 0 0 3 0 1 1 1 0 0 0 1 0 0 0 0
0 0 0 0 0 0 0 0 0 0 0 0 0 0 0 0 0 0 0 0 0 45 595 2160 2354 771 71 4 0 0 0 0
1 2 0 1 0 0 1 1 0 5 3 4 8 5 6 6 3 1 2 1 0 1 0 0 0 0 0 0 0 1 0 0
0 0 0 0 0 0 0 0 0 0 0 0 0 0 0 0 0 0 0 0 0 0 0 0 0 0 0 0 0 0 0 0
0 0 0 0 0 0 0 0 0 1 0 0 0 0 0 1 0 1 1 0 0 0 0 0 0 0 1 1 1 3 4 3
0 0 0 0 0 0 2 0 0 0 0 0 2 0 0 0 1 0 0 0 0 0 0 1 0 0 0 0 0 0 0 0
5 3 14 13 14 12 18 14 9 7 7 7 8 9 9 9 9 7 12 12 8 6 10 7 7 6 8 8 5 12 6 15
0 0 0 0 0 0 0 0 0 0 0 0 0 1 0 1 1 0 1 0 0 0 0 0 0 0 0 0 0 0 0 0
3 2 1 1 1 2 3 2 0 3 0 1 2 1 1 1 3 2 2 2 3 0 1 2 1 1 3 0 3 0 1 3
0 0 1 2 0 0 0 0 0 1 0 0 0 0 0 0 1 0 0 0 0 0 0 0 0 0 0 0 0 0 0 0
0 0 0 0 0 0 0 0 0 0 0 0 0 0 0 0 0 0 0 0 0 0 0 0 0 0 0 0 0 0 0 0
0 0 0 1 0 1 0 0 0 0 0 1 0 0 0 2 0 0 0 0 0 0 0 0 0 0 0 0 0 0 1 0
0 0 0 1 0 0 0 0 0 0 0 0 0 0 0 0 0 0 1 0 0 0 0 0 0 0 0 0 0 0 0 0
24 31 33 68 135 306 547 783 842 742 431 190 75 25 11 0 0 0 0 0 0 0 0 0 0 0 0 0 0 0 1 0
0 0 0 0 1 0 0 1 0 0 0 1 1 0 1 0 0 0 0 0 0 1 0 0 0 0 1 0 0 0 0 1
0 1 1 1 1 2 3 6 9 8 12 1 2 5 1 5 10 7 6 5 5 6 1 2 2 3 4 3 2 1 2 2
0 0 0 1 0 0 0 0 0 0 0 1 0 0 0 0 0 0 0 0 0 0 0 1 0 0 1 0 0 0 0 0
0 0 0 0 0 0 0 0 0 0 0 0 0 0 0 0 0 0 0 0 0 40 609 2188 2392 709 61 1 0 0 0 0
2 2 2 0 3 2 2 8 4 8 5 4 3 2 5 6 0 0 0 0 2 0 0 0 1 1 0 0 0 1 1 3
0 0 0 0 0 0 0 0 0 0 0 0 0 0 0 0 0 0 0 0 0 0 0 0 0 0 0 0 0 0 0 0
5 4 0 2 1 1 4 1 2 0 1 0 2 2 5 2 4 7 6 6 5 10 10 8 16 26 26 41 80 134 130 135
0 0 2 0 0 1 0 0 0 0 0 0 0 0 0 0 0 1 0 0 0 0 0 2 0 0 0 0 1 0 0 0
0 2 2 0 4 1 2 1 1 2 1 0 2 2 1 4 1 1 1 1 1 2 1 2 2 3 2 2 3 4 4 0
0 0 0 0 0 2 0 0 0 0 0 1 0 0 1 0 1 0 0 0 0 0 0 0 0 1 0 0 0 1 0 1
1 0 1 0 1 1 0 0 0 1 0 0 1 1 1 0 0 0 1 0 0 0 0 0 0 0 2 0 0 0 0 0
0 0 0 0 0 0 1 0 1 0 0 0 0 0 0 0 2 0 0 0 0 0 0 0 0 1 0 1 0 0 0 0
0 0 0 0 0 0 0 0 0 0 0 0 0 0 0 0 0 0 0 0 0 0 0 0 0 0 1 0 0 0 0 0
1 1 1 0 1 0 2 1 1 1 1 0 0 0 0 1 0 2 0 1 2 1 0 1 2 0 0 2 0 0 0 0
0 0 1 0 0 0 0 0 0 0 0 0 1 0 0 0 0 0 0 0 1 0 0 0 0 0 0 0 0 0 0 0
2 4 1 2 6 5 20 19 16 18 17 8 5 0 2 1 0 0 2 2 2 6 6 1 2 1 2 0 2 2 3 2
0 0 0 0 0 1 1 0 0 0 0 0 0 1 0 0 0 0 0 0 0 0 0 1 0 0 1 0 1 0 0 0
1 0 0 0 0 0 0 0 0 0 0 0 0 0 0 0 0 0 0 0 0 0 0 0 0 0 0 0 0 0 0 0
1 0 0 0 0 0 0 0 0 0 1 0 0 0 0 0 0 0 0 0 0 0 0 1 1 0 0 0 0 0 0 0
0 0 0 0 0 0 0 0 0 0 0 0 0 0 0 0 0 0 0 0 1 45 580 2098 2449 761 61 5 0 0 0 0
2 8 1 7 1 0 3 0 1 2 1 3 6 4 5 5 3 2 0 1 0 1 1 1 0 1 0 0 1 0 0 0
0 0 1 0 0 0 0 0 0 0 0 1 0 0 0 0 0 0 0 0 0 0 0 0 0 0 0 0 0 0 0 0
5 5 5 3 4 1 7 3 7 3 4 4 3 4 3 4 0 1 3 0 7 7 1 5 6 2 5 3 3 1 1 4
0 0 0 0 0 0 0 0 0 0 0 0 0 0 0 0 0 1 0 0 0 0 0 0 0 0 0 0 0 0 0 1
4 5 9 6 9 9 9 11 6 8 7 3 6 10 6 6 4 3 6 9 4 12 11 8 6 7 11 5 8 13 23 14
1 0 0 1 0 0 0 0 0 0 1 0 0 0 0 0 0 0 1 0 0 0 0 0 0 1 0 1 0 0 0 0
2 1 0 1 2 6 8 17 35 44 17 8 7 4 4 5 7 9 6 2 3 3 0 4 4 3 4 1 0 2 3 4
1 1 1 0 3 0 0 0 1 0 0 1 0 0 0 0 1 0 0 0 0 0 0 1 0 0 0 0 0 1 1 0
0 0 0 0 0 0 0 0 0 0 0 0 0 0 0 0 0 0 0 0 0 0 0 0 1 0 0 1 0 0 0 0
1 1 0 1 1 2 1 1 1 1 1 0 1 3 0 0 1 1 3 0 1 3 1 1 3 1 0 1 1 3 2 0
0 1 1 0 0 0 0 0 1 0 2 0 0 0 0 0 0 0 0 0 0 0 0 0 0 0 0 0 0 0 0 0
16 12 20 32 61 95 207 293 309 242 162 80 31 11 7 7 4 4 8 10 9 5 8 7 8 11 9 4 9 4 4 9
0 0 0 0 1 0 0 1 0 0 0 1 0 0 0 0 0 0 1 0 1 0 0 0 0 0 0 0 0 0 0 0
21 3 2 0 3 6 10 12 16 12 9 6 3 0 1 3 10 12 13 11 8 4 2 4 4 4 2 4 1 3 2 0
0 1 0 0 0 0 0 1 0 1 0 0 1 0 0 0 0 0 0 1 0 0 2 0 1 1 0 0 0 1 0 0
0 0 0 0 0 0 0 0 0 0 0 0 0 0 0 0 0 0 0 0 1 44 550 2177 2316 827 83 2 0 0 0 0
2 3 2 0 1 0 4 1 4 3 8 9 11 4 7 5 7 3 2 1 3 0 0 0 0 0 0 2 0 0 0 1
0 0 0 0 0 0 0 0 0 0 0 0 0 0 0 0 0 0 0 0 0 0 0 1 0 0 0 0 0 0 0 0
0 0 1 0 1 0 0 2 1 1 1 1 2 0 1 0 1 0 1 0 0 0 1 0 0 1 0 0 1 4 3 2
0 0 0 0 0 0 0 0 1 0 0 0 0 0 0 0 0 0 0 0 0 0 1 0 0 0 0 0 0 0 0 0
10 9 15 26 31 24 17 11 12 9 12 8 17 8 9 11 15 15 13 9 11 13 13 16 7 10 18 12 15 23 16 23
1 1 0 1 0 0 0 0 0 0 0 0 0 0 0 0 2 0 2 0 0 1 0 0 0 0 0 1 0 0 0 1
1 2 0 3 5 3 2 2 2 3 3 2 4 3 4 5 5 2 3 1 1 3 4 4 2 7 4 4 3 2 2 3
0 0 2 1 1 1 0 1 0 0 0 1 0 1 0 0 0 0 0 0 0 0 0 1 0 0 1 0 0 0 0 1
0 0 0 0 0 0 0 0 0 0 0 0 0 0 0 0 0 0 0 0 0 0 0 0 0 0 0 0 0 0 0 0
0 0 2 0 0 0 1 0 0 0 0 0 0 0 0 0 1 0 1 0 0 0 1 0 2 0 1 0 0 1 0 0
0 0 0 0 0 0 0 0 0 0 0 0 0 0 0 0 1 0 0 0 0 0 0 0 0 0 0 0 0 0 0 0
29 38 46 82 204 417 743 1084 1192 916 582 263 99 28 9 1 0 1 0 0 0 0 0 0 0 0 0 1 0 0 0 0
0 0 0 0 0 0 0 0 0 1 0 0 0 0 0 0 0 0 0 0 0 0 1 0 0 0 0 0 0 0 0 0
3 5 1 3 5 3 1 21 24 14 8 8 3 2 6 3 8 14 18 17 4 9 7 3 5 6 9 2 5 1 1 2
0 0 0 0 0 0 0 2 0 1 0 0 0 0 0 0 0 0 0 0 0 0 0 0 0 0 0 0 0 0 0 0
0 0 0 0 0 0 0 0 0 0 0 0 0 0 0 0 0 0 0 0 1 34 579 2195 2335 781 73 2 0 0 0 0
1 2 3 3 1 4 4 8 6 7 6 6 2 11 3 3 2 3 1 0 0 0 0 1 1 0 0 3 1 1 2 5
1 0 0 0 0 0 0 1 0 0 0 0 0 0 0 0 0 0 1 0 0 0 0 0 0 0 1 0 0 0 0 0
10 3 3 2 6 3 9 2 1 3 5 7 1 6 5 8 11 11 7 15 18 19 19 16 21 32 49 114 183 272 269 271
0 0 0 0 0 0 0 0 0 0 0 0 0 0 0 0 0 0 0 0 0 1 0 0 0 0 0 0 0 0 0 0
3 2 4 5 5 4 1 2 3 1 4 1 2 3 2 2 1 4 7 1 1 1 0 3 2 1 5 3 6 5 6 6
0 0 0 0 0 0 0 0 0 0 0 1 0 0 0 0 0 1 0 1 0 0 0 0 0 0 0 0 0 0 1 0
1 0 0 0 0 0 1 1 3 3 4 0 2 0 1 0 4 0 0 1 0 0 0 0 0 1 1 2 3 0 1 0
0 0 0 1 2 1 0 1 0 0 1 0 1 1 0 0 0 0 0 0 0 0 0 0 1 0 0 1 0 0 0 0
0 0 0 0 0 0 0 1 0 0 0 0 0 0 0 0 0 0 0 0 0 0 0 0 0 0 1 0 0 0 0 0
1 1 0 3 3 0 1 1 2 0 0 0 0 0 1 1 0 2 0 0 1 3 1 1 0 2 0 1 1 0 0 0
1 1 0 0 0 0 0 0 0 0 0 0 0 0 1 0 0 0 0 0 0 0 0 0 0 0 0 0 0 0 0 0
2 2 2 5 2 10 17 31 29 24 14 14 5 4 2 3 2 3 4 1 1 1 2 4 6 2 2 1 1 5 2 1
0 0 0 0 2 0 0 0 0 0 0 0 0 0 1 0 0 0 0 0 0 0 0 0 0 0 0 0 0 1 0 0
2 0 0 0 0 0 0 0 0 1 0 0 0 0 0 0 0 0 0 0 0 0 0 0 1 0 0 0 0 0 0 0
2 0 0 0 0 0 1 0 1 0 0 0 0 0 0 0 0 0 0 0 2 0 0 0 1 0 0 0 0 0 0 0
0 0 0 0 0 0 0 0 0 0 0 0 0 0 0 0 0 0 0 0 1 52 583 2120 2402 766 75 1 0 0 0 0
5 3 6 1 1 4 2 0 0 2 5 4 7 8 5 5 5 1 1 2 1 0 1 0 0 1 1 0 0 0 0 0
0 0 0 0 0 0 0 0 0 0 0 0 1 0 0 0 0 0 0 0 0 0 0 0 0 0 0 0 0 0 0 0
2 4 4 3 1 2 3 8 5 6 6 2 2 2 6 4 5 3 6 2 7 5 3 1 0 0 1 3 2 4 7 4
0 0 0 1 0 0 0 0 0 0 1 0 0 0 0 0 1 0 0 0 0 0 0 0 0 0 0 0 0 0 0 1
7 11 7 8 15 6 8 10 6 12 6 7 9 8 12 9 8 9 6 12 13 10 14 16 11 12 14 11 8 8 5 8
0 0 0 0 0 0 0 1 0 0 2 0 1 0 0 0 0 0 0 4 0 0 0 0 0 2 0 1 0 0 0 0
1 2 2 1 3 4 8 18 49 66 21 7 2 3 5 7 12 13 4 3 3 4 4 3 4 1 1 0 3 3 3 2
0 0 2 2 1 1 0 0 1 0 0 1 0 0 1 0 0 0 0 0 0 0 0 0 0 0 1 0 0 0 0 0
0 0 0 0 0 0 0 0 0 0 0 0 0 0 0 0 0 0 0 0 0 0 0 0 0 0 0 0 0 0 0 1
0 1 1 1 2 0 0 0 1 0 0 0 1 1 3 0 0 0 1 3 0 0 0 0 2 0 1 1 0 1 0 1
0 0 0 0 0 0 0 0 0 0 0 0 0 0 0 1 0 0 0 0 0 0 0 1 0 0 1 0 0 0 0 0
25 12 19 30 57 125 236 327 326 281 170 85 31 17 10 12 8 9 12 11 5 7 10 9 9 6 7 9 6 6 7 10
1 0 0 0 1 0 0 1 1 0 1 0 0 0 0 0 0 0 0 0 0 0 0 1 0 0 0 0 0 0 1 1
46 4 2 2 3 3 7 26 34 28 23 8 5 3 5 5 12 14 13 12 6 12 8 4 2 14 5 8 9 3 1 3
0 0 0 1 1 0 0 0 3 0 0 0 0 0 0 0 0 0 0 1 0 0 0 0 0 0 0 1 0 0 0 0
0 0 0 0 0 0 0 0 0 0 0 0 0 0 0 0 0 0 0 0 1 36 552 2170 2342 820 79 0 0 0 0 0
1 1 4 4 3 3 8 3 8 2 8 10 8 6 9 6 5 3 4 0 1 0 0 0 0 0 0 1 1 2 2 0
0 0 0 0 0 0 0 0 0 0 0 0 0 0 0 0 0 0 0 0 0 0 1 0 0 0 0 0 0 0 0 0
1 0 1 1 1 1 0 1 1 2 2 1 3 1 2 1 1 1 0 0 1 0 0 0 1 1 0 2 2 1 2 5
0 0 0 0 0 1 0 1 0 0 0 1 1 0 0 0 0 1 0 0 0 0 0 0 0 0 0 0 0 0 0 0
15 27 33 35 38 40 40 36 20 19 17 16 17 18 12 21 20 15 21 26 17 18 16 16 25 20 25 33 36 38 31 27
0 0 0 0 1 0 0 0 0 0 0 1 0 0 0 0 0 0 0 1 0 0 1 1 0 0 0 0 1 1 0 0
1 2 4 2 3 4 1 3 5 2 3 1 4 4 3 4 0 2 4 2 5 5 2 3 2 3 3 6 3 6 4 3
0 0 0 0 0 1 0 0 1 0 0 0 0 0 1 0 1 0 0 1 0 0 0 1 0 0 0 1 0 0 0 0
0 0 0 0 0 0 0 0 0 0 0 0 0 0 0 0 0 0 0 0 0 0 0 0 0 0 0 0 0 0 0 0
1 0 1 1 0 3 0 0 1 0 0 0 0 0 0 1 1 1 0 0 0 0 1 1 0 0 0 0 1 0 0 0
0 1 0 0 0 0 0 0 0 0 0 0 0 0 0 0 0 0 0 0 0 0 0 0 0 0 0 0 0 0 0 1
38 47 67 126 284 620 1082 1517 1661 1247 796 393 151 41 12 3 2 1 0 0 0 0 1 0 1 1 1 0 0 0 0 1
0 0 0 0 0 0 0 0 0 0 1 0 0 0 0 1 0 0 1 0 0 0 0 0 0 0 0 1 0 1 0 0
3 1 3 2 7 3 13 40 43 51 45 13 5 3 7 20 34 34 27 29 21 14 11 6 8 12 17 11 4 5 10 8
0 0 0 0 0 0 0 0 0 0 0 0 0 0 0 0 0 0 0 0 0 0 0 0 0 0 0 0 1 0 0 0
0 0 0 0 0 0 0 0 0 0 0 0 0 0 0 0 0 0 0 0 1 29 602 2186 2361 749 68 4 0 0 0 0
1 2 1 3 7 6 10 15 11 15 16 11 2 2 4 5 6 1 3 0 0 0 0 0 0 1 0 0 4 1 5 2
0 0 0 0 0 0 0 0 0 0 0 0 0 0 0 0 0 0 0 0 0 0 0 0 0 0 0 0 0 0 0 0
4 4 4 7 3 6 7 1 2 3 3 1 0 2 6 5 1 7 4 8 9 12 12 7 18 17 32 78 113 136 166 137
0 0 2 0 0 1 0 0 0 0 0 0 0 0 0 0 0 0 0 0 0 0 0 0 0 0 0 0 0 0 0 1
4 6 17 6 15 13 7 9 9 4 2 12 5 7 6 11 7 4 11 6 9 12 7 9 5 7 7 7 7 8 11 9
0 0 1 0 1 0 0 0 0 0 0 0 0 0 0 0 0 0 0 0 0 0 0 0 0 0 0 0 0 0 0 0
1 0 0 1 0 1 4 1 4 11 5 1 3 0 1 2 1 1 1 0 0 1 0 0 0 1 4 0 0 0 3 1
0 0 0 1 0 1 0 0 0 0 1 1 0 0 0 0 0 0 1 0 0 0 0 0 0 0 0 0 0 0 0 0
0 0 0 0 0 0 0 0 0 0 0 0 0 0 0 0 0 0 0 0 0 0 0 0 0 0 0 0 0 0 0 0
0 2 0 0 2 2 0 1 2 1 0 1 0 1 0 2 2 0 0 0 1 0 2 1 1 2 0 2 1 0 0 1
1 0 0 0 1 0 1 0 0 0 0 0 0 0 0 0 0 0 0 0 0 0 0 0 0 0 0 0 0 1 0 0
6 4 3 2 9 12 16 26 18 20 18 9 6 4 1 6 4 2 3 2 9 6 3 4 3 4 4 3 3 4 3 4
0 1 0 0 0 0 1 0 1 0 0 0 0 0 0 0 0 0 0 0 0 0 0 1 0 0 0 0 0 0 0 0
11 2 0 0 1 0 0 0 0 0 0 0 1 0 1 1 1 0 0 0 0 0 0 0 1 0 1 0 0 1 0 0
1 0 0 0 0 0 0 0 0 0 0 0 0 0 0 1 0 0 0 1 0 0 0 0 1 0 0 0 0 0 0 0
0 0 0 0 0 0 0 0 0 0 0 0 0 0 0 0 0 0 0 0 1 26 569 2227 2334 770 73 0 0 0 0 0
5 5 3 3 3 4 3 2 1 0 2 1 5 7 7 7 5 1 5 1 0 0 0 0 1 1 2 0 1 0 0 0
0 0 0 0 0 0 0 0 0 1 0 0 0 0 0 0 0 0 0 0 0 0 0 0 0 0 0 0 0 0 0 0
1 1 3 0 3 1 4 3 1 1 0 3 0 0 4 2 0 6 2 1 3 1 1 0 0 5 1 2 1 1 0 1
0 0 0 0 0 0 0 1 1 0 0 0 1 1 0 0 0 0 0 0 0 0 0 0 0 0 0 0 0 0 0 0
2 2 5 3 6 2 0 2 1 4 3 1 2 1 3 6 4 1 2 3 8 2 2 1 0 6 3 4 3 1 1 6
0 0 0 1 0 0 0 0 0 0 0 1 0 0 1 0 0 0 0 0 0 0 1 0 0 0 0 0 0 0 0 1
3 1 0 3 3 4 8 21 33 35 19 5 2 2 2 2 9 6 2 3 0 1 0 2 1 1 1 2 0 3 2 3
0 1 1 0 0 0 1 0 0 0 1 1 0 0 0 0 0 0 0 1 1 0 1 0 0 0 0 0 0 0 1 0
0 0 0 0 0 0 0 0 0 0 1 0 0 0 0 0 0 0 0 0 0 0 0 0 0 0 0 0 0 0 0 0
0 0 0 0 0 0 1 0 0 0 0 0 0 1 1 0 0 1 0 0 0 0 0 0 0 0 0 0 0 0 0 0
0 0 0 0 0 2 1 0 1 0 0 0 0 0 0 0 0 0 0 0 0 0 0 0 1 0 0 0 0 0 0 0
0 4 4 3 9 19 33 49 31 32 24 11 4 1 1 0 1 2 1 0 2 1 1 2 2 2 1 0 0 2 0 1
0 2 0 0 1 0 0 0 0 1 0 0 2 1 0 0 0 1 1 1 0 0 0 1 0 0 0 0 0 0 0 0
24 7 1 3 4 12 26 50 64 62 60 11 7 8 4 14 28 28 41 28 14 15 5 8 6 11 11 10 6 3 2 5
0 0 1 0 0 0 0 0 0 0 0 1 0 1 0 0 0 1 0 0 0 1 1 0 1 1 0 0 0 1 0 0
0 0 0 0 0 0 0 0 0 0 0 0 0 0 0 0 0 0 0 0 0 46 595 2112 2389 788 69 1 0 0 0 0
3 4 4 5 7 4 11 16 21 16 10 16 12 4 5 1 5 2 2 1 1 1 0 0 0 0 1 0 1 2 1 5
0 0 0 0 0 0 0 0 0 0 0 0 0 0 0 0 0 0 0 0 0 0 0 0 0 0 0 0 0 0 0 0
2 4 1 2 8 3 3 2 3 2 5 3 5 3 6 5 4 3 2 3 3 8 1 4 1 2 6 2 6 7 2 2
0 0 0 0 0 1 0 0 1 0 0 0 0 0 0 0 0 0 0 0 0 0 0 0 0 1 0 0 0 1 1 0
21 32 53 74 78 81 64 52 33 32 26 31 30 27 34 39 37 41 25 39 26 34 28 34 32 43 39 47 44 39 41 63
0 0 1 0 1 0 0 1 0 0 0 2 0 0 0 1 0 0 1 0 0 0 0 1 0 0 0 0 0 0 1 0
2 9 8 5 4 5 3 4 9 2 7 10 8 1 11 5 4 3 6 5 4 3 5 8 7 5 4 4 8 6 4 8
0 1 1 1 3 3 2 0 0 0 0 1 0 0 0 0 1 0 0 0 0 1 0 0 0 0 0 1 0 0 0 0
0 0 0 0 0 0 0 0 0 0 0 0 0 0 0 0 0 0 0 0 0 0 0 1 0 0 0 0 0 0 0 0
0 1 0 2 3 0 2 2 1 1 0 0 1 2 1 0 0 1 0 2 0 0 0 1 1 0 0 1 0 2 1 4
0 0 0 0 0 0 0 0 0 0 0 0 0 0 0 0 0 0 0 0 0 1 0 0 0 1 0 0 0 0 0 0
63 71 86 177 413 820 1449 2034 2287 1827 1148 562 217 66 15 4 2 4 3 2 0 1 1 0 1 0 4 0 1 1 1 2
0 0 0 0 0 1 0 1 0 0 0 0 0 0 1 0 0 0 0 0 0 0 0 0 0 0 0 0 0 0 0 0
5 4 0 9 12 26 47 105 148 136 107 41 15 9 15 41 78 82 67 74 48 19 12 18 22 29 31 25 14 9 9 9
0 0 1 0 0 0 0 0 1 0 0 0 0 1 0 1 0 0 0 0 0 0 0 0 0 1 0 2 0 0 0 0
0 0 0 0 0 0 0 0 0 0 0 0 0 0 0 0 0 0 0 0 0 36 571 2153 2389 781 66 4 0 0 0 0
2 1 0 6 10 15 13 24 15 17 17 11 13 5 3 0 3 0 1 0 1 0 0 0 0 1 1 2 1 0 8 8
0 0 0 0 0 0 0 0 0 0 0 0 0 0 0 0 1 0 0 0 0 0 0 0 0 0 0 0 0 0 0 0
5 1 6 2 3 7 7 6 5 2 7 5 5 4 4 6 6 8 10 14 10 8 11 12 6 18 22 45 78 130 130 97
0 1 0 0 0 0 0 0 0 0 0 0 0 0 0 0 0 0 0 0 0 0 0 0 0 0 0 0 1 0 0 0
6 8 11 21 24 24 13 10 14 12 8 19 17 10 13 14 11 9 7 11 13 18 12 11 16 11 20 21 18 17 12 27
1 0 0 1 0 0 0 1 1 0 0 0 0 0 0 0 0 0 0 0 0 0 0 0 1 0 1 0 0 1 0 0
2 1 0 1 2 1 4 14 19 24 6 5 2 3 0 5 6 7 4 2 0 1 0 2 0 2 3 1 0 1 2 2
2 0 1 1 0 0 0 0 1 1 0 0 0 0 0 0 0 0 0 0 0 0 0 0 0 0 0 0 0 0 0 0
0 1 0 0 0 0 0 0 0 0 0 0 0 0 0 0 0 0 0 0 0 0 0 0 0 0 0 0 0 0 0 0
2 0 1 1 2 1 1 0 3 3 0 2 0 0 0 0 0 3 0 3 3 1 0 0 1 0 1 2 0 0 1 3
1 0 1 0 1 0 0 0 0 0 0 0 0 0 0 0 0 0 0 0 0 0 0 0 0 0 0 0 0 0 0 0
8 9 8 11 12 13 25 24 31 40 23 14 6 6 6 4 3 7 8 5 9 1 7 7 3 6 5 4 5 6 2 1
1 0 0 0 0 0 0 0 0 0 0 0 0 1 0 0 0 1 0 0 0 0 2 0 0 0 0 0 0 0 0 2
20 3 3 0 0 1 0 1 1 2 2 0 0 0 0 0 1 0 1 0 0 1 0 0 2 3 0 0 1 1 0 2
0 0 0 0 0 0 0 0 0 0 0 0 0 1 0 0 0 0 1 0 0 1 0 0 1 0 1 0 0 0 0 0
0 0 0 0 0 0 0 0 0 0 0 0 0 0 0 0 0 0 0 0 0 50 558 2132 2394 795 70 1 0 0 0 0
1 0 0 0 0 0 0 1 0 3 0 0 0 2 2 1 1 3 0 0 0 1 0 0 0 0 0 0 0 0 1 1
0 0 0 0 0 0 0 0 1 0 0 0 0 0 0 0 0 0 0 0 0 0 0 0 0 0 0 0 0 0 0 0
0 0 0 0 1 0 0 0 0 0 0 0 0 0 0 1 0 0 0 0 1 0 0 0 0 0 1 0 0 0 0 0
0 0 0 0 1 0 1 0 0 0 0 0 0 0 1 0 0 0 0 0 0 1 0 0 1 0 0 0 0 0 0 0
0 0 0 0 0 0 0 1 0 0 0 0 0 0 0 0 0 0 0 0 0 0 0 0 0 0 0 0 0 0 0 0
0 0 0 0 0 1 1 1 1 1 0 0 0 0 0 0 1 0 0 0 0 1 0 0 0 0 0 0 1 0 1 0
0 0 0 0 0 0 0 1 2 7 2 0 1 0 0 0 0 0 0 1 0 0 0 0 1 0 0 0 0 0 1 1
1 1 0 1 1 0 0 1 0 0 0 0 1 0 0 0 0 0 0 1 0 0 2 1 0 0 0 0 0 0 0 0
0 0 0 0 0 0 1 0 0 0 0 0 0 0 0 0 0 0 0 0 0 0 0 0 0 0 0 0 0 0 0 0
0 0 1 0 0 0 0 0 0 0 0 0 0 0 0 0 0 0 0 0 0 1 0 0 0 0 0 0 0 0 0 0
0 2 0 0 0 0 0 0 0 0 1 0 1 0 0 0 0 0 1 0 1 0 0 0 0 0 0 0 0 0 0 0
0 0 0 1 0 1 0 3 3 0 2 0 0 0 0 0 0 0 1 0 0 0 0 0 1 0 0 0 0 0 0 0
0 0 0 0 0 0 0 0 0 0 0 0 0 0 0 1 0 0 0 1 0 0 1 0 1 0 1 0 0 0 0 1
4 1 0 0 3 6 16 34 43 34 19 8 4 1 2 10 21 9 19 13 9 5 3 3 2 2 5 2 3 0 2 0
1 0 1 0 0 0 0 0 1 0 1 0 0 0 0 0 1 0 1 1 0 2 0 0 0 0 1 0 0 0 1 0
0 0 0 0 0 0 0 0 0 0 0 0 0 0 0 0 0 0 0 0 0 45 615 2168 2305 790 76 1 0 0 0 0
1 5 2 5 9 12 18 23 25 33 26 16 11 13 4 10 4 8 1 1 0 0 1 0 0 1 0 1 1 1 2 5
0 0 0 0 0 0 0 0 0 0 0 0 0 0 0 0 0 0 0 0 0 0 0 0 0 0 0 0 0 0 0 0
6 9 6 4 4 3 3 2 2 6 1 4 6 2 2 7 2 2 5 4 4 7 3 5 4 6 4 3 8 6 6 7
1 0 0 0 1 0 0 0 0 0 0 0 0 0 0 0 1 0 0 0 0 0 0 0 0 0 0 1 0 1 0 0
28 61 56 100 115 98 101 62 43 39 40 35 39 42 43 45 48 59 44 31 36 39 40 40 41 43 35 61 41 61 63 50
0 0 0 0 0 0 0 0 0 0 2 1 0 0 0 1 0 0 0 0 0 1 1 0 0 0 0 1 0 0 0 0
2 2 4 5 8 6 11 9 8 9 5 4 12 7 7 11 7 8 3 11 7 7 6 6 8 11 11 9 12 11 10 13
0 0 1 1 1 0 0 0 0 0 0 0 0 0 1 0 0 0 1 0 0 0 0 0 0 0 1 0 0 0 1 0
0 0 0 0 0 0 1 0 0 0 0 0 0 0 0 0 0 0 0 0 0 1 0 0 0 0 0 0 0 0 0 0
2 2 3 0 1 2 0 1 1 1 1 1 1 0 2 1 3 1 2 1 2 2 0 4 1 0 0 0 2 1 0 2
0 0 1 0 0 0 0 0 0 0 0 0 0 0 0 0 0 0 0 0 0 0 0 0 0 0 0 0 0 0 0 0
72 88 134 245 512 1151 2098 2989 3307 2695 1696 834 300 98 14 11 5 5 3 5 4 2 2 3 6 6 1 2 3 1 1 2
0 0 0 1 0 0 0 0 0 0 0 0 0 2 0 0 0 0 0 0 0 0 1 0 0 0 0 0 0 0 0 0
6 7 13 12 17 34 134 229 330 349 214 94 41 19 32 72 127 176 161 153 88 55 35 30 46 44 59 25 22 17 14 22
0 0 0 0 1 0 1 0 0 0 0 0 0 0 0 0 0 0 0 0 0 0 0 0 0 0 1 1 0 0 0 0
0 0 0 0 0 0 0 0 0 0 0 0 0 0 0 0 0 0 0 0 0 48 627 2125 2323 807 68 2 0 0 0 0
2 3 7 3 11 23 24 42 23 26 25 23 18 10 8 7 1 3 1 1 1 3 0 1 0 2 4 2 1 5 9 9
0 0 0 0 0 0 0 0 0 0 0 0 0 0 0 0 0 0 0 0 0 0 0 0 0 0 0 0 0 0 0 0
1 0 0 0 1 0 0 0 2 0 0 2 0 0 1 0 0 1 2 2 0 2 3 0 4 4 7 9 18 27 31 25
0 0 0 1 0 0 0 0 0 1 0 0 0 0 0 0 0 0 0 0 0 0 0 0 0 0 0 0 0 0 0 0
11 18 16 27 27 35 36 19 19 13 17 27 16 25 23 21 30 23 28 26 18 27 24 19 16 20 31 24 22 31 16 33
0 0 0 0 0 0 0 0 0 0 0 0 0 0 0 0 0 0 0 1 0 1 0 0 0 0 1 0 0 0 0 0
0 4 1 2 2 2 8 19 35 35 23 6 5 1 2 6 4 10 8 2 0 2 1 3 2 2 3 0 1 4 3 1
0 0 0 0 1 0 0 0 0 0 0 1 0 0 1 0 0 0 0 0 0 1 0 0 0 0 0 0 0 0 1 0
0 0 0 0 0 0 0 0 0 0 0 1 0 0 0 0 0 0 0 0 0 0 0 0 0 0 0 0 0 0 0 0
2 3 4 0 1 3 1 3 0 0 0 0 3 0 1 1 0 0 0 0 1 0 0 0 1 1 0 3 0 0 0 1
1 0 1 0 0 0 0 0 0 0 1 0 1 0 0 0 0 0 0 0 0 0 0 0 0 3 0 0 0 0 0 0
21 14 10 20 20 31 33 58 59 55 29 23 8 13 11 6 7 8 7 12 8 4 8 11 7 9 8 7 14 2 9 11
0 1 0 0 0 0 0 0 0 0 0 0 0 0 0 0 0 0 0 0 0 0 0 0 1 0 1 1 0 0 0 1
43 6 3 2 0 0 6 5 12 11 2 4 2 1 3 6 2 3 5 4 3 3 3 2 1 1 2 2 2 2 3 0
0 0 0 0 0 0 0 0 0 0 0 0 1 0 0 0 0 1 0 0 1 0 0 0 0 0 0 0 0 0 0 0
0 0 0 0 0 0 0 0 0 0 0 0 0 0 0 0 0 0 0 0 0 45 585 2199 2362 724 82 3 0 0 0 0
1 0 0 0 0 0 0 1 0 0 1 2 1 2 1 0 0 0 0 1 1 0 0 2 0 0 0 0 0 0 0 0
0 0 0 1 0 0 0 0 0 0 0 0 0 0 0 0 0 0 0 0 0 0 0 0 0 0 0 0 0 0 0 0
0 0 0 0 1 0 0 0 1 0 0 0 0 0 0 1 0 0 0 0 0 0 0 0 0 0 0 0 0 0 0 0
0 0 1 1 0 0 0 1 0 2 0 0 0 0 0 0 0 1 0 0 0 0 1 0 0 0 0 0 0 0 0 0
0 0 0 0 1 0 0 0 0 0 0 0 0 0 0 0 0 0 0 0 0 0 0 0 0 0 0 0 0 0 0 0
0 0 0 0 0 0 0 0 0 0 2 0 0 0 0 0 3 0 0 0 0 0 0 0 1 0 0 0 0 0 0 0
0 0 0 0 0 0 0 0 0 0 0 0 0 0 0 0 0 0 1 0 0 0 0 1 0 0 0 0 0 0 0 0
0 0 0 1 1 1 0 1 0 1 0 0 0 0 1 2 0 1 0 0 2 0 0 1 0 1 1 0 1 1 0 0
0 0 0 0 0 0 0 0 0 0 0 0 0 0 0 0 0 0 0 0 0 0 0 0 0 0 0 0 0 0 0 0
0 0 0 0 0 0 0 0 0 0 0 0 0 0 0 0 0 0 0 0 0 0 0 0 0 0 0 0 0 0 0 1
0 0 0 0 0 0 0 0 0 0 0 0 0 0 0 0 0 0 0 0 0 0 0 0 0 0 0 0 0 0 0 1
0 0 0 0 0 0 0 0 0 0 0 0 0 0 0 0 0 0 0 0 0 0 0 0 0 0 0 0 0 0 0 0
1 1 0 0 0 2 0 1 1 0 0 0 0 1 1 1 0 0 0 2 0 0 1 0 0 0 0 0 0 1 0 0
0 0 0 0 0 0 1 1 3 3 1 0 0 0 0 1 0 1 2 3 0 0 1 0 2 0 0 0 0 0 0 0
0 1 0 0 0 0 0 0 0 0 0 0 0 0 0 0 0 0 0 0 0 1 0 0 0 0 0 0 0 0 1 0
0 0 0 0 0 0 0 0 0 0 0 0 0 0 0 0 0 0 0 0 1 49 581 2183 2330 775 79 2 0 0 0 0
1 1 0 0 0 0 0 0 1 2 4 2 1 0 2 2 0 0 0 0 0 0 1 0 0 0 0 0 0 0 0 1
0 0 0 0 0 0 0 1 0 0 0 0 0 0 0 0 0 0 0 0 0 0 0 0 0 0 0 0 0 0 0 0
0 0 0 0 0 0 0 1 0 0 0 0 0 0 0 0 0 0 0 1 0 0 1 0 0 0 1 1 2 0 0 3
0 0 0 1 0 1 0 0 0 0 0 0 0 0 0 0 1 0 1 0 0 0 0 0 0 0 0 0 0 1 0 0
12 19 23 33 38 42 35 25 17 19 18 16 7 17 19 20 21 20 13 15 13 17 16 13 26 12 25 20 25 21 17 20
0 0 1 0 0 0 0 0 0 1 0 0 0 0 0 2 0 0 0 0 1 0 0 0 0 1 0 0 0 0 0 0
3 6 4 7 5 10 5 3 3 2 7 10 7 5 8 6 7 8 6 1 7 3 10 6 5 11 7 5 6 10 10 12
1 1 0 0 0 0 1 0 0 0 0 0 0 1 0 0 0 0 0 0 0 1 0 0 0 0 0 0 0 0 0 0
0 0 0 0 0 0 0 0 0 0 0 0 1 0 0 0 0 0 0 0 0 0 0 0 0 0 0 0 0 0 0 0
0 2 0 1 0 0 1 2 1 0 0 0 4 2 1 1 2 4 0 3 2 2 0 2 1 0 1 0 2 0 4 1
0 0 0 0 1 1 0 0 0 0 0 0 1 0 0 0 0 0 0 0 0 0 0 0 0 0 0 0 0 0 0 0
109 134 174 311 705 1603 2925 4195 4685 3717 2272 1188 401 117 32 9 7 8 11 9 8 6 9 10 9 7 5 5 10 1 7 3
0 0 0 0 0 0 0 0 0 0 0 0 1 0 2 0 0 0 0 0 0 0 0 1 0 0 0 0 0 0 0 0
7 7 13 10 22 50 132 266 412 417 246 119 21 19 30 87 161 202 204 156 102 64 41 35 49 72 42 34 32 23 21 20
0 0 0 0 0 0 0 1 0 0 0 0 0 0 0 1 1 0 1 0 0 0 1 0 0 0 0 0 0 0 0 0
0 0 0 0 0 0 0 0 0 0 0 0 0 0 0 0 0 0 0 0 0 41 579 2192 2332 764 87 5 0 0 0 0
2 3 6 15 12 16 30 31 30 33 33 21 15 11 7 3 8 6 3 1 0 1 0 1 0 1 2 3 1 4 4 12
0 0 0 0 0 0 0 0 0 0 0 0 0 0 0 0 0 0 0 0 0 0 0 0 1 0 0 0 0 0 0 0
0 0 0 1 0 1 0 1 0 0 0 0 1 0 1 1 0 0 1 0 1 2 0 0 0 0 2 3 3 6 5 9
0 0 0 0 0 0 0 0 0 0 0 0 1 0 0 0 0 0 0 0 0 0 0 0 0 0 0 0 0 0 0 0
6 8 11 12 15 18 19 11 12 13 8 5 9 6 12 12 9 8 5 10 8 10 3 5 18 12 12 16 7 12 13 14
0 0 0 0 0 0 0 0 0 0 0 0 0 0 0 0 0 0 0 0 0 0 0 1 0 2 0 0 0 0 0 0
0 1 2 2 2 1 5 18 37 39 19 5 0 3 4 1 6 9 2 3 2 1 1 0 0 3 1 5 2 2 0 1
0 1 0 0 0 0 0 0 0 0 0 0 0 0 0 0 0 0 0 0 0 0 0 0 1 0 0 0 0 0 0 0
0 0 0 0 0 0 0 0 0 0 0 0 0 0 0 0 0 0 0 0 0 0 0 0 0 0 0 0 0 0 0 0
1 1 0 1 0 0 1 0 1 1 0 2 1 0 0 0 2 2 0 0 2 1 0 0 2 1 1 2 0 0 4 2
0 0 1 0 0 0 0 2 0 1 0 0 0 0 0 0 0 0 0 0 0 1 0 0 0 0 1 1 0 1 0 0
16 6 8 5 10 19 17 19 24 14 17 18 4 5 9 3 5 9 7 10 4 2 11 7 5 6 7 6 4 7 6 4
1 0 1 0 0 0 0 0 0 0 0 0 0 0 0 0 0 0 1 0 0 0 1 0 0 0 0 0 0 1 1 1
19 3 3 0 0 1 3 2 4 3 2 0 3 1 0 1 2 1 1 4 3 1 0 0 1 1 0 0 1 2 2 1
1 0 0 0 0 0 1 0 0 1 0 0 0 0 0 0 1 0 1 0 0 0 0 1 1 1 0 0 0 0 0 0
0 0 0 0 0 0 0 0 0 0 0 0 0 0 0 0 0 0 0 0 0 51 594 2145 2419 720 71 0 0 0 0 0
0 1 2 0 1 1 0 0 2 1 1 1 1 3 1 4 0 1 0 0 1 0 0 0 1 0 0 0 1 0 0 0
0 0 0 0 0 0 0 0 0 0 0 0 0 0 0 0 0 0 0 0 0 0 0 1 0 0 0 0 1 0 0 0
0 0 0 0 0 0 0 0 0 0 0 0 0 1 0 0 0 0 0 0 0 0 0 0 0 0 0 0 0 0 0 0
0 0 0 0 2 0 0 0 0 0 0 0 1 0 0 1 1 0 0 0 0 0 0 0 0 0 0 0 0 0 0 0
0 0 0 0 0 0 0 0 0 0 0 0 0 0 0 0 0 0 1 0 0 0 0 0 0 0 0 0 0 0 0 0
0 0 1 0 0 0 1 0 1 0 1 2 0 0 0 0 1 0 0 0 0 0 0 0 1 0 2 0 0 1 0 0
0 0 0 0 0 0 0 0 0 0 0 0 0 0 0 0 0 0 0 0 0 0 0 0 0 0 0 0 0 1 0 0
0 0 0 0 0 0 0 1 0 0 0 0 1 0 0 0 0 1 0 0 0 0 0 0 0 0 2 1 0 0 1 0
1 0 0 0 0 0 0 0 0 0 0 0 0 0 0 0 0 0 0 0 0 0 0 0 0 0 0 0 0 0 0 0
0 0 0 0 0 0 0 1 0 0 0 0 0 0 0 0 0 0 0 0 0 0 0 0 0 0 0 0 0 0 0 0
0 0 0 0 0 0 1 0 0 0 0 0 0 0 0 0 0 0 0 1 0 0 0 0 0 0 0 0 1 0 0 0
0 0 0 0 0 0 0 0 0 0 0 1 0 0 0 0 0 0 0 0 0 0 0 0 0 0 0 0 0 0 0 0
1 0 1 0 0 1 0 0 0 1 0 0 0 0 2 0 1 0 0 0 0 0 0 0 0 0 0 1 0 0 0 1
0 0 0 0 0 0 1 1 2 1 1 0 1 0 0 0 1 1 1 0 0 0 1 0 0 1 0 0 0 0 0 0
1 0 1 0 0 0 0 0 0 0 0 0 0 0 0 0 0 0 0 0 0 0 0 0 0 0 0 0 0 0 0 1
0 0 0 0 0 0 0 0 0 0 0 0 0 0 0 0 0 0 0 0 0 32 531 2206 2416 755 58 2 0 0 0 0
0 1 1 0 0 0 1 0 0 0 2 2 0 5 2 1 0 2 1 0 0 0 0 0 0 0 0 0 0 0 1 0
0 0 0 0 0 0 0 0 0 0 0 0 0 0 0 0 0 0 0 0 0 0 0 1 0 0 1 0 1 0 0 0
0 0 0 0 0 0 0 0 0 0 0 0 0 1 0 0 0 0 0 0 0 0 0 0 0 0 2 0 1 1 1 1
0 0 0 0 0 0 0 0 0 0 0 0 0 2 0 0 0 0 0 0 0 0 0 0 1 0 1 0 0 0 0 1
1 1 0 2 2 1 3 1 0 1 0 0 1 0 0 0 1 0 0 3 0 1 1 0 1 1 0 0 0 0 2 0
0 0 0 0 0 0 0 0 0 0 0 0 0 0 0 0 0 0 0 0 0 1 0 0 0 0 0 0 1 0 0 0
1 0 0 0 1 0 0 0 0 0 1 0 1 1 1 0 2 2 1 1 0 0 1 0 0 0 0 2 0 3 1 1
1 1 0 0 0 0 0 1 0 0 0 1 0 0 0 0 0 1 0 0 0 0 0 0 0 2 0 0 0 0 0 0
1 0 0 0 0 0 0 0 0 0 0 0 0 0 0 1 0 0 0 0 0 0 0 0 0 0 0 0 0 0 0 0
0 0 0 0 0 0 0 0 0 1 0 0 0 0 0 0 0 0 0 0 0 0 0 0 0 0 0 0 0 1 0 0
0 0 1 1 0 0 0 0 0 0 0 0 0 0 0 0 0 0 0 0 0 0 0 0 0 0 0 0 0 0 0 0
36 40 61 85 232 450 817 1166 1266 1023 642 349 109 41 10 7 3 2 5 3 3 3 1 3 3 4 2 1 4 0 1 3
0 0 0 0 0 0 0 0 0 0 0 0 0 0 0 0 1 0 0 0 0 0 0 0 0 0 0 0 0 0 0 0
1 4 2 1 5 17 49 127 171 186 110 48 16 5 10 34 50 77 81 52 41 29 11 14 16 21 15 10 8 5 2 6
0 0 0 0 0 0 0 0 0 0 0 0 0 0 0 0 0 0 0 0 0 0 0 1 0 1 0 0 0 0 1 0
0 0 0 0 0 0 0 0 0 0 0 0 0 0 0 0 0 0 0 0 2 47 598 2117 2395 763 78 0 0 0 0 0
0 1 0 0 0 0 1 0 3 2 5 2 3 2 2 0 1 1 1 0 0 0 1 0 0 0 0 0 0 0 0 0
1 0 0 0 0 0 0 0 0 0 0 0 0 1 0 0 0 0 0 0 0 0 0 0 0 0 0 0 0 0 0 0
1 0 0 0 0 0 0 0 0 0 0 0 0 0 0 0 0 1 0 0 0 0 0 0 0 1 0 0 0 4 3 6
0 0 0 0 0 1 0 0 1 0 0 1 0 0 0 0 0 0 0 0 1 1 0 0 1 0 0 0 0 0 0 0
0 0 0 0 1 0 0 0 2 0 1 0 0 0 0 2 2 0 0 1 1 0 1 0 1 0 2 0 0 1 1 1
1 0 0 1 0 0 1 0 0 0 1 0 0 0 0 0 0 0 0 0 1 0 0 0 0 0 0 0 1 0 0 0
0 1 0 1 1 3 2 3 16 15 7 2 0 1 1 2 3 2 2 2 1 1 3 1 1 2 0 0 0 1 2 1
0 1 0 3 0 0 0 0 0 0 0 0 0 0 0 0 0 0 0 0 1 0 0 0 0 1 0 0 0 0 2 0
0 0 0 0 1 0 0 0 0 0 0 0 0 0 0 0 0 0 0 0 0 0 0 0 0 0 0 0 0 0 0 0
0 1 0 0 0 0 0 0 0 0 0 0 0 0 0 0 0 0 1 0 0 0 0 0 0 0 0 0 0 0 0 0
0 1 0 0 0 0 0 0 0 0 0 1 0 1 1 0 0 0 0 0 0 0 0 1 0 0 0 0 0 0 0 0
1 0 1 0 1 1 0 3 2 1 0 1 0 0 0 1 2 0 0 3 0 0 0 0 1 0 0 1 0 0 1 0
0 0 0 1 0 0 0 0 1 0 0 0 0 0 0 0 0 1 0 0 0 0 0 0 0 0 0 2 0 0 0 0
8 2 0 0 0 1 1 3 1 0 0 1 0 0 0 0 2 0 1 0 1 0 0 0 0 0 0 0 1 0 0 0
1 0 0 0 1 0 0 0 0 0 0 0 0 1 0 0 0 1 0 0 0 1 0 0 1 0 1 0 0 0 0 0
0 0 0 0 0 0 0 0 0 0 0 0 0 0 0 0 0 0 0 0 0 0 0 0 0 0 0 0 0 0 0 0
#ENDOFDATA   :